acc_x, acc_y, angular_z, stamp, 
0.11213379789462707,0.007627504077124826,-0.002103166632544363,3093199000000,
0.12004357774571253,-0.02215319606871805,-0.0018526323035041802,3093204000000,
0.11054079467702879,-0.007355431958387549,-0.0014890359303264403,3093209000000,
0.12578265235567113,-0.008401390104693564,-0.0010562499576739941,3093214000000,
0.13349064599286742,-0.006810636635283994,-6.677441503534856e-05,3093219000000,
0.12394485341689741,0.003569029812607335,-0.0003167791073167046,3093224000000,
0.12943337676468022,0.003694844780530636,0.00031013415196500205,3093229000000,
0.08634644642523419,0.00862148381902856,0.0005746239000140633,3093234000000,
0.10053046838805979,0.013038323908548491,0.0009222935250340657,3093239000000,
0.0865101425575195,-0.0017706146531704953,0.0016646640788031506,3093244000000,
0.11749166247064655,0.010967083445443494,0.0017682849895209083,3093249000000,
0.10257589519975364,-0.006497097912936192,0.0017317934288947677,3093254000000,
0.08625028560932184,0.006247228088077768,0.0018224709324467941,3093259000000,
0.12516953828758987,0.002891522680738139,0.0017427476658531085,3093264000000,
0.0659479504758971,-0.000598532177983723,0.0020839152535613126,3093269000000,
0.08169055434650173,-0.003605099608896189,0.0018407606101605572,3093274000000,
0.07786847327163238,0.0009725267242482113,0.0015955634128601284,3093279000000,
0.10566895459082838,-0.010802524384247045,0.0009312400281608823,3093284000000,
0.0992702529802859,-0.006041835080355245,0.0010827481876687795,3093289000000,
0.08712280615154508,0.019287510043735898,0.0008401320915539894,3093294000000,
0.08245515117911892,-0.02232578949922409,0.0003855691184166658,3093299000000,
0.100347394744144,0.007202722489806546,-6.489020904254945e-05,3093304000000,
0.08353893595192852,-0.004417203655535204,-0.00013763769821584337,3093309000000,
0.11694952378282837,-0.006621615037563313,-0.0002253887802187403,3093314000000,
0.07236019201833233,-0.048371235737795074,-0.00042804693741713953,3093319000000,
0.06620082198881361,0.004503627482184349,-0.001116415121004364,3093324000000,
0.0688206188077126,0.01215283427119825,-0.0011112345867939325,3093329000000,
0.0904016404538063,0.004741952980246052,-0.0012070641251560217,3093334000000,
0.0530876225978067,0.014629749795616449,-0.0011042240344982248,3093339000000,
0.07621400604538281,-0.013687608466807038,-0.0012301602225224474,3093344000000,
0.06492065348305592,-0.005589544422936496,-0.0012598384698043364,3093349000000,
0.05959546998481655,0.027449307623012193,-0.0015761604101186678,3093354000000,
0.07925416387673771,0.03334987752643304,-0.0011931422471980445,3093359000000,
0.07092994729995761,-0.0007671736583367127,-0.0010277208546673256,3093364000000,
0.003039084458201738,0.001122734299839754,-0.0010428895868586309,3093369000000,
0.035249106076296624,0.0032171391246524307,-0.000576794963826994,3093374000000,
0.04621599570861675,-0.00894129923913772,-0.00020627556638040025,3093379000000,
0.032462295112197906,0.007405745886163228,-6.4980862624814154e-06,3093384000000,
0.031074391071656306,-0.008604449766235497,3.440862240530431e-05,3093389000000,
0.050200399150841755,0.01603195005823815,7.63967463106705e-05,3093394000000,
0.03255780828307136,0.0070535260856839825,0.0006929730973720327,3093399000000,
0.01120241998942827,-0.00397903650909442,0.0003889543414788935,3093404000000,
0.028688223138581114,-0.020172564752235646,0.0003588589988023982,3093409000000,
6.836750676974124,0.028033841458648723,0.0013028855223009787,3093414000000,
-0.05722410722772415,0.00024085771899977348,0.001807813942142419,3093419000000,
0.00016243124711407897,0.000662162046158596,0.002592075597024032,3093424000000,
0.013581246035075559,-0.03766838705726217,0.0030762135007082222,3093429000000,
0.027655492928388536,-0.000399438836734981,0.003952988552975979,3093434000000,
-0.006226489888615638,-0.013862528024466258,0.005117254625538719,3093439000000,
5.744166557185927,-0.028820787868860567,0.005549416709544099,3093444000000,
1.295310749742432,-0.01431456282384275,0.006491327961887658,3093449000000,
-0.08638062358407408,-0.022098617006109274,0.006648611488848089,3093454000000,
0.006682845937196608,-0.0010976886277462628,0.007195288828863708,3093459000000,
0.02593167939903966,0.005860074026685469,0.0073170892636040446,3093464000000,
-0.0011066340922771863,0.004669033725701597,0.006829359730262749,3093469000000,
0.00671646238009801,-0.001551469327103731,0.0068397644643267835,3093474000000,
6.852386105788189,0.0027908782374534372,0.006748598866612027,3093479000000,
0.0967430909742875,-0.00643498185779894,0.005924371812516333,3093484000000,
-0.05646123270863507,-0.030120688563081303,0.00569683502943316,3093489000000,
-0.00826173852586701,0.002468047541790105,0.005382743424174147,3093494000000,
0.0024913909156926723,-0.028802504047142977,0.0046836422896595654,3093499000000,
0.040926893773064785,-0.006668013468789707,0.004295290405457883,3093504000000,
-0.033113840558520395,0.024645759761155128,0.0036317898325301766,3093509000000,
6.971483424153644,0.0006266532775520009,0.00339175991527818,3093514000000,
-0.11219539330404152,-0.03169415190453353,0.0033705383954901864,3093519000000,
-0.03353869450969112,-0.020880210598655673,0.0033671162221803443,3093524000000,
-0.05819378513750838,-0.009928821579884443,0.0034773334628961155,3093529000000,
-0.04235663667618671,0.006249273740714193,0.003302158025074336,3093534000000,
-0.008222355404052957,0.017757180184402387,0.0035854210231738674,3093539000000,
-0.03564921009498255,-0.0028228935716189665,0.003990323807446261,3093544000000,
6.980170724334444,-0.016121235270462157,0.0038100070013448004,3093549000000,
-0.16377252303178086,0.0009858063124765781,0.004779110307912046,3093554000000,
-0.058433918298127475,-0.019117846397949643,0.004509016306094573,3093559000000,
-0.03345484219615232,-0.016640028121670015,0.00530560229270017,3093564000000,
-0.002420818730891835,0.001317245559698193,0.00518771329790064,3093569000000,
-0.03540933876945985,-0.01835092947219535,0.0054158483369121345,3093576000000,
5.793951741324126,-0.02177790340729729,0.005791186343058932,3093581000000,
-0.1298137528490197,-0.0045525605604851,0.005323417749827495,3093586000000,
-0.09988835061374396,-0.0045283178987774,0.005612385767456447,3093591000000,
-0.056738523368137186,-0.008838002654864369,0.0056941312516036735,3093596000000,
-0.03136221151305131,0.007425844203151986,0.005386760369640568,3093601000000,
-0.04726499852354415,0.007333056838464863,0.0051820754055124305,3093606000000,
-0.0350607989824188,-0.011375271269254155,0.005019846963948708,3093611000000,
6.905397249632699,0.013231831997359939,0.004916065559362159,3093616000000,
-0.17000287250779333,0.008236424727812369,0.004743996034247206,3093621000000,
-0.1298687997928532,-0.019982690562237115,0.004450339292534276,3093626000000,
-0.07757692516391047,0.014761388226159317,0.004424021173879141,3093631000000,
-0.05828225499307768,-0.004010674639694976,0.004227015982254849,3093636000000,
-0.07820022070543012,-0.008514414131817003,0.003956996341694169,3093641000000,
0.08822478165466838,-0.013973608578044383,0.004037099910945898,3093646000000,
6.910852175944666,0.0011393325912067336,0.004228012038926999,3093651000000,
-0.2883366539490586,-0.0011212672307702835,0.004151167981666458,3093656000000,
-0.009697231133217847,0.04693292075162096,0.004173043408816002,3093661000000,
-0.09699514194208961,0.005186665538453409,0.004430874380841099,3093666000000,
-0.08968628530751199,-0.03346551258249299,0.005184711062707269,3093671000000,
-0.08877628638946156,0.00410122050925087,0.004766327970627566,3093676000000,
-0.05264802896525008,-0.023157499519106527,0.00468407967403309,3093681000000,
6.906669102468492,0.010325279949476636,0.004924527635428675,3093686000000,
-0.18286856463628645,-0.014973153125554136,0.005242490320808726,3093691000000,
-0.08757244928676447,0.01704048748273898,0.004972539239419111,3093696000000,
-0.05106925095553559,-0.026411318989410768,0.005212005360977411,3093701000000,
-0.05876629710980839,0.0038066686437937015,0.005024906545472739,3093706000000,
-0.09318731702280822,0.013573098917041553,0.004865489171739098,3093711000000,
5.580712130484869,0.019436391689719407,0.004813324519614364,3093716000000,
0.043425699975697736,-0.012308781252799052,0.004770397481650962,3093721000000,
-0.1561263679078164,0.002474737868824781,0.005129822475021331,3093726000000,
-0.10612004706891169,-0.02961037694532884,0.004705288042706085,3093731000000,
-0.0815394018344674,-0.011022638945612341,0.004839993409293744,3093736000000,
-0.06865638117212376,-0.0014855116007333172,0.004570287520734507,3093741000000,
-0.05983915649214648,-0.01633402477638614,0.004569322016517126,3093746000000,
6.716176720532422,-0.008118037989550138,0.0044311388961378925,3093751000000,
-0.019642995131578106,0.00261486356127624,0.004390315669214312,3093756000000,
-0.11376129439670263,-0.007523857491584397,0.004556181258678588,3093761000000,
-0.12550908960199494,0.001072269368358825,0.004424474873316244,3093766000000,
-0.09486964328803167,-0.015149571425114436,0.0048481455225979,3093771000000,
-0.07670519405071351,-0.003278594083845698,0.004603769482502401,3093776000000,
-0.0618777916711178,-0.003074513950019283,0.004510358764443257,3093781000000,
6.8718009449210635,0.00707871208063565,0.004174620645634228,3093786000000,
-0.15635982368850998,0.0027332621594729637,0.0046974191644578505,3093791000000,
-0.14051295967589117,0.01805029379395092,0.004658743566542201,3093796000000,
-0.0764622474739996,-0.007704081301071812,0.004946920451882,3093801000000,
-0.09080538122863122,0.029388746985757854,0.004770045321410845,3093806000000,
-0.03978638433916415,-0.021722401515805106,0.004570688235226106,3093811000000,
-0.0993243275314691,0.024511462188927125,0.004862052239891278,3093816000000,
5.7408172988389365,-0.005729209348356014,0.005016404144855987,3093821000000,
-0.20605154186513458,0.03148978342633954,0.004885694225110989,3093826000000,
-0.14955461177074572,0.0004699053022689647,0.0051237759942880925,3093831000000,
-0.13625981369003232,0.008596292666308472,0.004980060897705804,3093836000000,
-0.10689047645929609,0.006774069476786216,0.004614122505575713,3093841000000,
-0.07545636477771361,0.020592602477867678,0.004756907022556708,3093846000000,
-0.07413063742969389,-0.007603623048897052,0.00442516484139856,3093851000000,
6.891710795929948,-0.03479529692002547,0.004643773401748687,3093856000000,
-0.1899730756210724,-0.008600337688714902,0.004692401458161158,3093861000000,
-0.12074015932872213,0.011477914477183479,0.004830427004907064,3093866000000,
-0.06652589423957823,-0.018992008118232706,0.004944189328736542,3093871000000,
-0.09254380601202497,-0.02102083447311579,0.004634176303409234,3093876000000,
-0.0706560868812194,-0.014809684248169322,0.004887778097769584,3093881000000,
5.60501826775984,-0.011342979344928929,0.004644313878930093,3093886000000,
0.913295531890085,0.03226493653649877,0.00484114162458398,3093891000000,
-0.13663764846971205,0.03738809344053235,0.005005133406087112,3093896000000,
-0.0994738132948516,-0.015031703240791817,0.004797096270214358,3093901000000,
-0.08186508651120186,-0.024568095057872948,0.00467280794862217,3093906000000,
-0.09323050835452967,0.023161951299654353,0.004561364568166411,3093911000000,
-0.0645615757753788,0.011192371595393633,0.004692876615085333,3093916000000,
6.689047573224742,-0.012818089160377733,0.005050835560199616,3093921000000,
0.03105765918059245,-0.036222697812309315,0.004654962013715011,3093926000000,
-0.16036973150626574,0.01609653843587754,0.004558873478050438,3093931000000,
-0.10293303152451333,0.018035697403640506,0.004843184991800173,3093936000000,
-0.07931001785395919,-0.0038676468401012453,0.0046704550193104035,3093941000000,
-0.08078905110946698,-0.0024480846750944683,0.004916542363410465,3093946000000,
-0.06429111231289822,0.013697754754015868,0.0052832434383801976,3093951000000,
5.7559864748759235,-0.005358945579634065,0.004767443089806877,3093956000000,
-0.19630691347525653,-0.040378652187107344,0.004725233416187463,3093961000000,
-0.2400191496615923,0.03271408680218962,0.004520261595457824,3093966000000,
0.0562571429246422,0.0011552403310912049,0.004498042104647319,3093971000000,
-0.17600814292044006,0.022834422208470963,0.004443296375471801,3093976000000,
-0.07294642258486649,0.005133130601614789,0.0042839106775601505,3093981000000,
0.021612544472566712,-0.001988498170665457,0.004720531015766136,3093986000000,
6.8271118696448605,0.021017020606459935,0.004591816219948563,3093991000000,
-0.16188215021029922,0.006806794550027601,0.004610152244060081,3093996000000,
-0.09863884893486544,0.009586066589705282,0.004643867392532486,3094001000000,
-0.05961195604713211,0.0036071774660765945,0.004350810694408346,3094006000000,
-0.05737195704596059,0.03033924748194963,0.00419150669881279,3094011000000,
-0.04860074806163306,-0.004882814236455345,0.004189761279350095,3094016000000,
-0.04453083313489023,-0.007875392606868035,0.004095930867360368,3094021000000,
6.894542842816603,-0.01151956213625676,0.0044206216801127105,3094026000000,
-0.16589425198370708,0.007214187421192588,0.00459462751844123,3094031000000,
-0.05820281787484302,-0.009524433525627731,0.004927737981869039,3094036000000,
-0.046784288946838073,0.001016674184067319,0.004700932244027856,3094041000000,
-0.041850489659489516,-0.006200287167817493,0.004758127452016488,3094046000000,
-0.04130826377054525,-0.0012430976048287252,0.0049033624075200495,3094051000000,
4.044572154512995,-0.0002694066664408203,0.0047217610315309485,3094056000000,
1.2176842266646162,-0.014986286495505055,0.0045881998815195234,3094061000000,
-0.10987247218986046,-0.003776070494713466,0.005036145632460551,3094066000000,
-0.04020793272569888,-0.01647130415278576,0.004682978490604416,3094071000000,
-0.019907182782141795,0.02491663793080972,0.004695679856328031,3094076000000,
-0.01535368992436444,-0.0012491834593218697,0.004860728386243556,3094081000000,
0.014792845086474476,0.02537145189320442,0.004602455611643554,3094086000000,
7.102410263468054,0.010469431181774238,0.004683811463545771,3094091000000,
0.9790406377749067,0.016447628329266835,0.004994593356355304,3094096000000,
-0.09586110202165288,0.04484593645071171,0.004895196360699775,3094101000000,
-0.003904732161093931,-0.01208105614120631,0.004582304041168668,3094106000000,
-0.04489058192033074,0.01697617917098907,0.004720745205040565,3094111000000,
-0.020988606934450624,0.037433778722352304,0.004645355702089115,3094116000000,
-0.006442292568886751,0.00735400784357799,0.0046537615199519775,3094121000000,
6.981248030065172,0.005127189919868284,0.004428094005051539,3094126000000,
-0.13996633822091076,0.02571146553074256,0.0047533810835711406,3094131000000,
-0.062260515370767905,0.027373377865611757,0.0043197749089920814,3094136000000,
-0.03198352437110885,-0.009239895233062245,0.004875357296675056,3094141000000,
-0.015903615061681496,-0.0064967114034196055,0.004257926677374801,3094146000000,
-0.004083968312474977,0.000643168318141769,0.004891629273359747,3094151000000,
0.0008430538277925965,-0.007458284001010777,0.004587969195085023,3094156000000,
5.7987953711053555,-0.006585744834860753,0.004578197288925206,3094161000000,
-0.1136832765599427,0.008191471962545523,0.004768259946767961,3094166000000,
-0.046080723177772856,0.010991587620246147,0.004597687642947118,3094171000000,
-0.019707865634349828,-0.0008563398339634307,0.004740891493635606,3094176000000,
-0.028488612387884107,-0.0032038385547281884,0.004854288029327013,3094181000000,
0.026298873815181797,-0.00771493399187374,0.005068639240256686,3094186000000,
0.003922419323459734,-0.019777315864008112,0.004849303176800581,3094191000000,
6.953999929437981,0.014271410097659823,0.004825221931356169,3094196000000,
-0.07656341563492851,-0.018638657468307437,0.004931603649547391,3094201000000,
0.015407971814924502,0.017037227194343602,0.004751359841025378,3094206000000,
-0.004679181864671828,-0.009028003682187634,0.004908426051328719,3094211000000,
0.012336868409403966,0.007111526068931683,0.004611449022407218,3094216000000,
0.026213220581457093,0.004431844708405534,0.004767289309421086,3094221000000,
5.7138829466333485,0.003431569156349411,0.004851703592961256,3094226000000,
1.266393537182621,-0.027568066074180463,0.0045227008925937335,3094231000000,
-0.0918397802696757,-0.0424054790858949,0.004520222047537336,3094236000000,
0.002363203843520263,0.014546281621917862,0.004700193672365448,3094241000000,
0.02459795675856801,-0.004988416600221672,0.004809415767227105,3094246000000,
0.058273402610317736,-0.022095396744764448,0.004727412037631621,3094251000000,
0.023199363572892172,0.018114977652188644,0.005038198089787635,3094256000000,
6.8175799997567745,-0.025822107969858187,0.004595194222138983,3094261000000,
0.14946210776603291,0.0024669871789654296,0.004556092657875912,3094266000000,
-0.03201368812651928,-0.0034215195621755826,0.004435392953521366,3094271000000,
0.020420957043897237,0.029167859936037793,0.004435749585099171,3094276000000,
0.04672937510595324,0.022432222349878534,0.004953402821357197,3094281000000,
0.05457617914428284,-0.028149840027167295,0.00430101138464735,3094286000000,
0.05379365566126148,0.013720468025583016,0.00467531652888275,3094291000000,
7.000482927161275,0.012454067091007357,0.004698632148983529,3094296000000,
-0.0638612742257224,-0.005918624235567837,0.0047143194871518725,3094301000000,
-0.013212377227003016,0.021579040652688217,0.004777770004128545,3094306000000,
0.05020564947931293,-0.002225521927977545,0.004630836865162824,3094311000000,
0.0315331348613553,0.009524475172489489,0.004650661037911409,3094316000000,
0.055399496106354536,0.0006939825359620648,0.004637623408149224,3094321000000,
0.07205676579155293,0.021520270675506815,0.004870018706927953,3094326000000,
7.0395429463595,0.007489397179212954,0.004693062676445048,3094331000000,
-0.08406548691609092,-0.010536512511193174,0.004949074797910081,3094336000000,
0.03326548387333304,0.029237093803411322,0.004956846634609119,3094341000000,
0.044898503094712286,0.010828798729295767,0.004680156704685886,3094346000000,
0.07818667798337807,-0.002155212690671674,0.004777780282023275,3094351000000,
0.11394629273667048,0.025415558480482586,0.004958363293772323,3094356000000,
0.11107678915788707,-0.02914996117514678,0.004914529780919791,3094361000000,
7.0402892871949305,0.01273063948264992,0.004865219817085137,3094366000000,
0.01205346047779923,0.00025002482131094867,0.004660811934696258,3094371000000,
0.08478441767391037,0.01568437893538479,0.004852510267282878,3094376000000,
0.09625896019180788,-0.004504138748525111,0.0051527351463129785,3094381000000,
0.10777805885802888,0.00872917631895442,0.004785536789515308,3094386000000,
0.08847162221138478,0.006487731009704898,0.004796184758353855,3094391000000,
2.4496019869902153,-0.008663291713944915,0.004747812347432336,3094396000000,
0.6091278599610275,-0.0025568989674813834,0.0039605575505128245,3094401000000,
0.07591348215274372,0.02764682058486038,0.0036669459738795335,3094406000000,
0.0695356350737022,0.005881830204710719,0.00235595451170392,3094411000000,
0.155574358242036,0.0007223303287085278,0.0014505679823991096,3094416000000,
0.1598087589867931,0.004148346616601577,0.0005900126214580521,3094421000000,
0.12130699621446665,-0.009731231944430227,-0.0003398770909403496,3094426000000,
0.14942818622766268,-0.007841230525040998,-0.001179947696300707,3094431000000,
0.14206751837693596,0.012583837067650875,-0.001417455679878847,3094436000000,
0.10288196887573343,-0.030895286049691467,-0.0025892312839670938,3094441000000,
0.1472356079993291,0.019407325526902837,-0.002334955520224135,3094446000000,
0.1161898057635947,-0.017430653737760336,-0.0030202629669256282,3094451000000,
0.17142935831548703,-0.051710087871985444,-0.002628305366503608,3094456000000,
0.14875775255791773,-0.012844093366955859,-0.002754977779798674,3094461000000,
0.14262574929224264,-0.021675773557748516,-0.002043413069447577,3094466000000,
0.15114635552225492,0.0003133632297323439,-0.001992789434029257,3094471000000,
0.1582457794860856,-0.031774586394339076,-0.0012801185638510314,3094476000000,
0.1244448343237587,-0.040700899799752756,-0.000507361210882754,3094481000000,
0.1712604220690282,0.014307738346763075,0.0003835186991020329,3094486000000,
0.14895189257208974,-0.011142041746393511,0.0004919299234063943,3094491000000,
0.16265574563440582,-0.005429956168153959,0.000884039275528783,3094496000000,
0.1750488350407886,0.011381577658784623,0.0014211931816759755,3094501000000,
0.17692614776721421,0.000826710483951441,0.0017765168181294103,3094506000000,
0.1627236691103001,0.014028666292723405,0.001412583064004796,3094511000000,
0.16106846506347436,-0.015152505579158697,0.001528676126451809,3094516000000,
0.1796547907986407,-0.006975672632817876,0.0012349703253083297,3094521000000,
0.1730839485190411,0.023579671169882285,0.0014658541123881714,3094526000000,
0.15973209853920484,-0.01671596659736193,0.0009639363362768151,3094531000000,
0.19847469662120526,0.01648723188443011,0.0009117668015256554,3094536000000,
0.18531680991722962,0.004863708847714995,0.00019701556508777164,3094541000000,
0.24593023940471576,-0.018030028990093924,0.00029501025717843367,3094546000000,
0.2211798982289777,-0.007913222926596597,7.038688476055188e-05,3094551000000,
0.17111367988457268,0.002790310960366616,-0.0004650997244539071,3094556000000,
0.22858634023333438,0.0022452086024829154,-0.00044174431171052273,3094561000000,
0.17660859100788961,-0.0017710549773525177,-0.0008482843505482698,3094566000000,
0.1699790654013977,-0.011498130837325555,-0.0007844314757818112,3094571000000,
0.17184759036739924,0.0072945709495946115,-0.0010720589221814244,3094576000000,
0.18708934160389504,0.014990979156620314,-0.0010009713264153978,3094581000000,
0.17433655288769262,-0.0012241436206002227,-0.0007115036045962217,3094586000000,
0.1981253592281511,-0.022323397147914092,-0.0008191549976912552,3094591000000,
0.2114405947185852,0.017391872823145256,-0.0005555037847307747,3094596000000,
0.2038662567150915,-0.016494057562195037,-0.00032011857469093816,3094601000000,
0.20890272654596215,-0.01834174868274555,-8.871010596810298e-05,3094606000000,
0.16804229062957077,-0.03915661339985855,0.0002760026092101712,3094611000000,
0.1786521120259076,0.010884266240172396,0.00034319194854984367,3094616000000,
0.20660142487339375,-0.009992063959532005,0.0004716212059620831,3094621000000,
0.2143642285073005,0.027983568936774145,0.0006813973493283615,3094626000000,
0.20023461323929231,0.010483968121024392,0.0005485012374344348,3094631000000,
0.20916266999484176,-0.026847501314436563,0.0005396474433908198,3094636000000,
0.19865983367589785,-0.022786342533100745,0.0006883672513784156,3094641000000,
0.22061328326413512,0.002614524182783965,0.000924527404111297,3094646000000,
0.2065975732628826,0.014328720453796578,0.0005795481033211136,3094651000000,
0.20487890683334678,-0.006284029412650174,0.0006590108549959626,3094656000000,
0.2365108154404842,-0.007749243543464651,0.0002616277519747152,3094661000000,
0.22422883147010467,0.008450512655748579,4.611794553369556e-05,3094666000000,
0.20949163385613828,-0.002486250229979198,8.820301954913912e-05,3094671000000,
0.21071893178714318,0.019483569265125303,-2.453353408474551e-05,3094676000000,
0.21267115677408646,-0.018764719310316997,0.00018723945613710667,3094681000000,
0.20592798083246358,-0.01586727572651691,-0.00010763982539204883,3094686000000,
0.25028714918559136,-0.006152400583983171,-0.00034659268329843173,3094691000000,
0.2186354068814183,0.017517070776547926,1.23265909875761e-05,3094696000000,
0.23888087678209974,-0.029855003130975683,-0.0004699682034370346,3094701000000,
0.23896203164994212,-0.004549327143586496,-0.0006543619554763183,3094706000000,
0.23591471281453233,0.005992261565654952,-0.0004023668752670542,3094711000000,
0.24175541354932628,-0.03998179228661418,-1.6820446224023296e-05,3094716000000,
0.24977134947727547,-0.003116778589509808,2.3387000995847378e-05,3094721000000,
0.25206486641700027,-0.0003914754386460037,0.0005539567957693213,3094726000000,
0.2707046501601472,0.005299418900552579,0.00010590449039280745,3094731000000,
0.23280234742442568,-0.01362279965885122,0.00024726275543284285,3094736000000,
0.2108500851395273,-0.01382760131930176,0.00010714859284095178,3094741000000,
0.24124047177361901,0.015170070083181433,0.0004550619870233956,3094746000000,
0.24262063193641906,-0.03904488883466552,0.000823095449030503,3094751000000,
0.25119816851474547,0.005834224539059782,0.0004986518380949149,3094756000000,
0.203269244404623,-0.025590637065397076,0.000635328911431734,3094761000000,
0.2421981003126945,-0.009802233933804107,0.0004952504625704587,3094766000000,
0.23865661761557422,-0.04410527050024392,0.0004581623798299977,3094771000000,
0.22669769760062045,0.00818863306905842,0.0002966548427383753,3094776000000,
0.23559476163114487,0.022741779989818994,-2.5923168199175686e-06,3094781000000,
0.2519233909006659,-0.010537117734338889,0.0004984690752155661,3094786000000,
0.253232802875322,-0.008978415044244304,0.00021120243980992363,3094791000000,
0.253834797213033,-0.02137793288070624,-3.34637159389048e-05,3094796000000,
0.21414465784569153,0.005963875287852267,9.024971913828986e-07,3094801000000,
0.25281563699917886,-0.015312051670085416,0.000151629297989456,3094806000000,
0.24356903928154727,-0.020773045481435097,0.0002534646423826388,3094811000000,
0.23223472670530923,0.036847451296270706,0.0002477047118278234,3094816000000,
0.23343516986088148,-0.01618038536224401,0.0001868600690820923,3094821000000,
0.23525040545375983,-0.006676518396304906,0.0001398662858829531,3094826000000,
0.2612452189774443,-0.012068181347603332,0.00036081224828015724,3094831000000,
0.25800833453099925,-0.034063848497169924,0.0003861328066218059,3094836000000,
0.25980581160894534,0.000368173409825129,0.0003516886484804452,3094841000000,
0.2691021193562431,0.02096668441247144,0.00042926186498216446,3094846000000,
0.276185380871291,0.015991012100485386,0.00044982125547156793,3094851000000,
0.2385662004024379,-0.008056939314302536,0.0005382948623482205,3094856000000,
0.25906933868008636,0.0040564756247038715,0.00044880440158808757,3094861000000,
0.29880824573263676,-0.027327355579006257,0.0005274690042899916,3094866000000,
0.2622376765780623,0.00650216061991692,0.0004404539324250273,3094871000000,
0.26211647814187133,0.013278906197415851,0.0004067416522679785,3094876000000,
0.2353650251473546,0.011996158783285922,0.0008178354338414355,3094881000000,
0.2219719859309005,-0.03715045920706089,0.000640626028174313,3094886000000,
0.2846041191440772,-0.021531848794354016,0.00046697360872373096,3094891000000,
0.24276601752240862,-0.010493465657515074,0.0004113882490299419,3094896000000,
0.23911500586374956,0.011618835629245606,0.00048788910823759584,3094901000000,
0.24330490556916276,0.031422296727880744,0.00032019919415679585,3094906000000,
0.23623374090934346,0.0029845805646330856,0.0005428042027152733,3094911000000,
0.25242006063369304,-0.009295875361066635,0.0007532266647088384,3094916000000,
0.2380361743498796,-0.027364904745603966,0.0005702177656449182,3094921000000,
0.27284881695487495,-0.0438983469684663,0.0006797094570115928,3094926000000,
0.26279373894842006,-0.00039256818780004487,0.0005182086922598218,3094931000000,
0.23212709690408537,-0.026013012844846976,-0.00015075926461908688,3094936000000,
0.24519948546808396,-0.030685319795826272,-0.00010658252347066995,3094941000000,
0.253436361962798,0.014604494252562624,0.0005600399136242535,3094946000000,
0.2577685410732953,-0.009511928596390651,0.0003994183334587887,3094951000000,
0.2644169882783844,-0.002192518926718137,0.00025779497543743795,3094956000000,
0.27525044499727197,-0.034256940393386316,0.00043114182892811155,3094961000000,
0.24218907063612544,-0.00022362327680508238,-7.300202254339138e-05,3094966000000,
0.2651594822762569,-0.0029142817455829993,0.00022742406541725017,3094971000000,
0.2573786553721673,-0.01915373360624888,0.0005842444604917241,3094976000000,
0.2553699654814706,0.024529753948299874,5.9916866024885295e-05,3094981000000,
0.24705196181213782,-0.031759442842202744,6.823168426181114e-05,3094986000000,
0.24653499643678203,-0.017963950676365668,0.0001168086066558069,3094991000000,
0.25372946756661274,-0.011634203104641826,0.00028037240122087443,3094996000000,
0.2499117664441477,-0.02155862139797264,0.0003806967950052127,3095001000000,
0.2305052821405645,-0.018672027216292547,0.0006233519716546808,3095006000000,
0.25813367299412815,-0.00708709387649586,0.0007000133076099941,3095011000000,
0.26369028241945214,0.009945441049430376,0.00042524262733119,3095016000000,
0.2297604927104226,-0.007738605951956787,0.0006090247158260983,3095021000000,
0.24738364680316657,0.00942847667966812,0.0003790123646335151,3095026000000,
0.2924352987466843,-0.009824450873499972,0.0003875532232890333,3095031000000,
0.2594550521645703,-0.005318582904182914,0.00018076902406111194,3095036000000,
0.25905867923356196,-0.005785973449784276,0.00018122119037152257,3095041000000,
0.2438619912158207,-0.022756918756024078,0.00045885358088147146,3095046000000,
0.2820897744780317,0.0339170012026331,0.00033881276504996595,3095051000000,
0.23585846989327877,-0.011459335513206517,0.00035530962086502014,3095056000000,
0.2470733494896639,0.011314663084219077,0.00043446743312245447,3095061000000,
0.25131806224122716,-0.024136125022190084,0.0003433949684692234,3095066000000,
0.25739381400417277,-0.0015686325098884998,0.0006770476752185532,3095071000000,
0.2214431206707649,0.021452696577251313,0.00018575818551729375,3095076000000,
0.23321051521002312,-0.024424275576637004,0.0007397334664141786,3095081000000,
0.22148037923840683,-0.00044970787662034373,0.0005014807845069931,3095086000000,
0.22336692577057973,0.004495382525587652,0.00019644942252680956,3095091000000,
0.23389753071731725,0.014189928280216455,0.0004346893407161799,3095096000000,
0.25138937249090676,-0.008940535101559864,0.0006263834754115247,3095101000000,
0.2407917890668136,0.010415843519704062,0.00024982070731069254,3095106000000,
0.24672183781652285,0.001279318193532946,0.00023125650889478837,3095111000000,
0.22358104820872368,0.02328267659377281,0.00036236142258200656,3095116000000,
0.2712928033743799,0.0006828494239297898,0.0003437973824075359,3095121000000,
0.22470671691427704,-0.01290430671919854,0.00057432555947844,3095126000000,
0.27944929871386276,-0.0018364536142221031,0.0006664963672757399,3095131000000,
0.2539006533181036,0.010408226373448699,0.00034809742933366835,3095136000000,
0.23442910306769685,-0.008900749924519016,0.0005271759211324834,3095141000000,
0.2440477046160509,-0.016786467724211905,0.00030156294121527706,3095146000000,
0.26703619023673625,0.003042622228929363,0.0003313739733918063,3095151000000,
0.23754820605323657,-0.047111479632124614,0.00046873335156445516,3095156000000,
0.21678389506878307,-0.017465813272481024,0.00012602723203518042,3095161000000,
0.25175884070384896,-0.0009475320801830465,0.0006797381582333187,3095166000000,
0.24298545974999272,-0.035443718781539894,0.0004137450856634082,3095171000000,
0.23717257457296514,0.010208339366171246,0.0005556627794447085,3095176000000,
0.24279961444335446,-0.029253922739100248,0.0004133978162709944,3095181000000,
0.2550465709776408,0.010394406470702068,0.0005164532776448679,3095186000000,
0.21934465378087376,-0.004211986980842759,0.0005411278465103575,3095191000000,
0.22940773119845168,-0.027082571094758447,0.00040909660120091817,3095196000000,
0.22668381479558822,-0.03940722191451875,9.771640981006178e-05,3095201000000,
0.24619481395987763,3.805607411527952e-05,0.0004323254359787486,3095206000000,
0.23845413561094597,-0.0021910801716067824,0.00019719176897014056,3095211000000,
0.24126088026794593,-0.0006326412279289635,0.00037392075954208854,3095216000000,
0.27040503628151447,-0.013182485497276668,0.0007489609271873343,3095221000000,
0.27856615264644335,0.0011334973976502144,0.00018134820877180793,3095226000000,
0.19786074537136158,-0.004690381212767823,0.0004975981842797953,3095231000000,
0.19502438203464667,-0.027958679950448873,0.00046925592263184833,3095236000000,
0.2420354090588087,-0.0058688680553125976,0.0006288864012013491,3095241000000,
0.24571671054412328,-0.0005579963537207162,0.0003429076136913249,3095246000000,
0.1959530143857675,0.0006606386763573499,0.00043696356277322045,3095251000000,
0.22628869766388793,0.0036125992666096525,0.0003719737975609765,3095256000000,
0.2387628460457197,-0.01393992042460054,0.0005736779643222691,3095261000000,
0.20541483094285382,0.0021475265323209532,0.0005789103218830171,3095266000000,
0.24421753831235996,-0.024036681546565318,0.00023663414140013566,3095271000000,
0.22552258216354437,-0.01862049670411479,0.00037829869339781535,3095276000000,
0.22566256588450617,0.026475507579906805,0.00039086276260504006,3095281000000,
0.2003083688138015,-0.0030681350170055073,0.0002028066192614213,3095286000000,
0.1909376128279532,-0.012315223714124666,0.0002821610425920966,3095291000000,
0.21112487192250318,0.013539899913805083,0.00024476289219403413,3095296000000,
0.2009556299153746,-0.005558530506886079,0.0002532229862259416,3095301000000,
0.21107285935636777,-0.010023271041837385,0.0003090631335144407,3095306000000,
0.24069463528539387,-0.011383480822994011,0.0009183568628609093,3095311000000,
0.21223663259626163,0.026775040788404696,0.0005193522723720253,3095316000000,
0.20760270909674963,-0.015693654042505365,0.00025134430946538813,3095321000000,
0.1862608647673749,0.02477648555999644,0.0003530446974901155,3095326000000,
0.18400257093635025,-0.01430059447586671,-0.0002637704066347753,3095331000000,
0.1922800958133469,0.00996745895763924,0.0006748791795811451,3095336000000,
0.21751628789786423,-0.025424444675433627,0.0005531937792797946,3095341000000,
0.19411455666521937,0.015473769317870503,0.0005661031324885307,3095346000000,
0.18932593722798685,0.007308615780039375,0.00012701831556761182,3095351000000,
0.21920528574623022,-0.014132008683346874,0.0004658941107153231,3095356000000,
0.20604674611732185,0.01119514204231315,0.00031635178045028023,3095361000000,
0.21709370839666342,0.023801598675251185,0.00024143647736699092,3095366000000,
0.24926586919233498,0.015425009038746874,0.0004266284801073776,3095371000000,
0.20472998018277258,-0.0007833866984506641,0.0005659698286710343,3095376000000,
0.24258066998468325,-0.0034442232103679476,8.335814940863543e-05,3095381000000,
0.23170615965696567,-0.00048369234182405515,7.148104270328674e-05,3095386000000,
0.20013730181257816,-0.01260067471550475,0.0003618455914354352,3095391000000,
0.1777009206926352,0.00212328703952593,0.0004758393359104105,3095396000000,
0.1737599435959739,0.02910990133879919,0.0005121691747991558,3095401000000,
0.18723692975311484,0.011291861143691656,0.0005708834049352178,3095406000000,
0.19520219219752222,0.012519988790696622,0.0005788913875971536,3095411000000,
0.18790159982444068,0.019210860044597426,7.103438057817757e-05,3095416000000,
0.19384648266090262,0.027265085679353915,0.00036431003346716395,3095421000000,
0.16511669115249306,0.005653398144107111,0.000574797638465399,3095426000000,
0.19914535434384337,-0.004419320507984882,0.00042675656367892605,3095431000000,
0.18216707594999448,0.00011048255375858702,0.00011312523997805704,3095436000000,
0.14641902436679724,0.020546418669679208,0.0004308709283055563,3095441000000,
0.1979523046476484,0.013342737754405067,0.00031915448095148295,3095446000000,
0.1719996099409721,0.0028011003195410663,0.0001478531519566075,3095451000000,
0.18035908177653315,-0.0004750487012911576,0.0006771645760587975,3095456000000,
0.2021352184272598,0.0024409205247001614,0.00010519754865676573,3095461000000,
0.20569124958707635,-0.0025068386123913476,-2.0942409570425403e-05,3095466000000,
0.18914498194584878,-0.009649491843269421,-5.879736455047577e-05,3095471000000,
0.1900599472728733,0.011222012557380413,0.0007210497514648421,3095476000000,
0.17458757364539568,0.02591747194224859,0.00025008988105086047,3095481000000,
0.15720964702850196,-0.003460352025304564,0.00019140098686032788,3095486000000,
0.18328780935662128,0.022603849125332684,0.0002009261572119568,3095491000000,
0.14030624269830513,-0.0007090148218843592,0.0003805583166936514,3095496000000,
0.19777745002912867,-0.006825396996306061,0.0003144449743906243,3095501000000,
0.1619455793045894,0.0021810613343869094,0.0008039141954068216,3095506000000,
0.15855672076625105,-0.00901910492718558,0.00024327889354284715,3095511000000,
0.1376304848694404,0.020272671493282293,0.0005182440073911261,3095516000000,
0.16552318220876264,0.033654772827742346,5.5449974581683046e-05,3095521000000,
0.17267877509507215,0.008137506558639008,0.0003579362672003149,3095526000000,
0.17579676055385718,-0.016426017973188697,0.00021951797414881128,3095531000000,
0.1858828904312846,-0.02177186934626294,0.00021059630889276444,3095536000000,
0.1912116950091977,-0.0001949060477836658,0.0004208544478182032,3095541000000,
0.1917995055548707,0.0042627317023481905,0.0002613215542806446,3095546000000,
0.17713895907546626,-0.014816249905925182,0.00019937742610133522,3095551000000,
0.1631563396255373,0.015381444208062856,2.3650491787228757e-05,3095556000000,
0.1669174218931042,0.012914050854285035,0.00028804052737503604,3095561000000,
0.15092371339043792,0.009943032880744437,0.00032140805193823477,3095566000000,
0.14733058819829925,-0.036822741593495786,0.00021580425758622272,3095571000000,
0.14169880179902683,-0.02226312362569499,0.00016771589855908223,3095576000000,
0.14998026615000243,-0.004625277908635523,-0.00022978921284427822,3095581000000,
0.12265185708640701,-0.020062417774461626,-0.00023198994255980927,3095586000000,
0.12801402883409238,0.009665312502031355,0.00018710243299302872,3095591000000,
0.17022418659040614,0.005292603703621031,0.00032066778539745726,3095596000000,
0.15870318853625967,-0.02459617474082786,0.00010618196124517222,3095601000000,
0.11704769789965504,0.009240289778351774,-0.00010077537364508628,3095606000000,
0.15622335835938453,0.002534746249972087,0.00032308631064016473,3095611000000,
0.15361935633357798,0.02135479402670393,0.00031621129677036463,3095616000000,
0.11956482781948874,-0.004044734444437266,0.0002005491658189224,3095621000000,
0.15429250213950238,0.002376190953577083,0.00022317926598352313,3095626000000,
0.1544586177326584,0.005857637493002598,0.000262374029722162,3095631000000,
0.13663654906391703,0.024806939186012074,0.00022843288050917229,3095636000000,
0.12568417510623933,0.007473858908457448,0.00042337413029982005,3095641000000,
0.1241264465769504,0.012367477078237904,0.00026513162839591825,3095646000000,
0.1466114080254667,-0.0064353042459180335,-8.44792732484294e-05,3095651000000,
0.12077622175855983,0.0075720495460598405,0.00032145214589432913,3095656000000,
0.14304366908107155,-0.023021578647456416,0.0006197377701139364,3095661000000,
0.12435903713905025,0.014354589259389114,0.00033782065085251323,3095666000000,
0.13866215923479194,0.0024447520291698203,-4.825753715205478e-06,3095671000000,
0.12168367085525221,0.0004425832369979836,0.0004921630468057751,3095676000000,
0.10042755074328741,-0.002037279830327361,0.0002123555396988586,3095681000000,
0.1112079000779995,0.03034172272106056,0.00013328973289275387,3095686000000,
0.10289172187902257,-0.015724526723787303,0.0002215693755890794,3095691000000,
0.12600249636796026,-0.002441314186176646,-5.1766651024079445e-05,3095696000000,
0.09286711341763418,0.00867163152203361,0.00027273642427249836,3095701000000,
0.09082219067537839,0.02356323249359297,8.990235109623915e-06,3095706000000,
0.09953243970269413,0.02214270076166794,-0.00014183934960206013,3095711000000,
0.13531234519110244,0.008585021228683858,8.943373807398384e-05,3095716000000,
0.11297573584241218,-0.006584547102990132,0.00017444026535774743,3095721000000,
0.09659904270273405,-0.0005071781820712292,0.00024286929597041123,3095726000000,
0.11296947842017048,0.008454592470111977,-0.00020179320302234584,3095731000000,
0.0745061494234659,-0.028203315670338513,-1.4193438154116197e-05,3095736000000,
0.09260429778889376,0.02555795747664622,0.0002594961817366108,3095741000000,
0.10600252843721727,-0.01498655432599105,3.212061086026054e-05,3095746000000,
0.10494346084269685,0.007312739513142696,0.00013386330191855235,3095751000000,
0.0901951633291941,0.01921361483121787,0.0003548189492998077,3095756000000,
0.07577029433655702,0.04021046026294142,0.00016130747577538767,3095761000000,
0.09094535389195238,0.0024195996323087975,9.068231422526215e-05,3095766000000,
0.09125899782562738,-0.020010707214536686,-0.00016657222545450807,3095771000000,
0.1002894837269445,-0.005269129466734606,0.0004215542802906352,3095776000000,
0.10658627505842659,-0.014876298876689512,0.00012072059333868092,3095781000000,
0.0697498484218122,-0.00036377046841422995,0.00024069237812823243,3095786000000,
0.09686074477535672,0.0035101749927463574,-0.0002725761578731549,3095791000000,
0.09238328946462183,-0.013680924240610603,0.00012581726058876478,3095796000000,
0.0794951414753393,0.006198960493680071,-5.742487188447603e-05,3095801000000,
0.09951946102859556,0.04244141133902445,-0.00022452530540607936,3095806000000,
0.0657110887102195,-0.016737656438632384,9.40173978269571e-05,3095811000000,
0.06942096251587974,-0.009694338846289457,-0.0003717266829269472,3095816000000,
0.08033728005704817,-0.0042494728894687485,0.0003193479886468976,3095821000000,
0.058115709385995355,-0.02228385990011726,-4.305113193501874e-05,3095826000000,
0.09292692899677668,-0.035576767105224255,-0.00019583721744648983,3095831000000,
0.0644326197277754,0.0044030659560297695,0.00026007279580204836,3095836000000,
0.09804549891958902,-0.01841510185876493,-0.0004539388382543214,3095841000000,
0.08549201992764659,-0.004552386772176147,-0.0005214289535537798,3095846000000,
0.05898969931145697,-0.008443655650169742,-0.00014344652589853523,3095851000000,
0.042122171483852826,-0.0014686337805004384,0.00011403316132187594,3095856000000,
0.052008625557306856,0.0027917244571415986,0.00038432181302458637,3095861000000,
0.10994678078323322,0.004500738291208067,-5.49859572773144e-05,3095866000000,
0.10183360685687096,-0.023587547055246134,-8.191162294110538e-05,3095871000000,
0.045656873597637496,-0.0053924284407204474,5.89782544371189e-05,3095876000000,
0.06701369867532096,0.02910987692757725,0.00011522057804507047,3095881000000,
0.08703321390241699,0.0011041726056018118,0.00011824691522733267,3095886000000,
0.08283722213955128,0.0179270835628272,9.825291271521281e-06,3095891000000,
0.06814445238741149,0.007751044085928072,-6.466887729619466e-05,3095896000000,
0.039319476416923245,-0.010467913936757656,-8.317711940959471e-05,3095901000000,
0.06855448353030612,0.002784425298005108,-0.00021794418377254522,3095906000000,
0.0420899484301714,-0.0025251324364890483,0.0001074234755512631,3095911000000,
0.019665178273467226,3.486498681628614e-05,0.00013464618490678697,3095916000000,
0.05409835377710544,-0.02569299784354947,0.00013154082479173052,3095921000000,
0.0630042193846099,0.02183736395897494,-5.314107014347756e-05,3095926000000,
0.05983075228004927,0.01156551288135304,-2.548561393173051e-05,3095931000000,
0.050781389959621344,0.017833407736979195,0.0003286393305644667,3095936000000,
0.053698061008194166,0.011363694281528686,0.00019769360562260928,3095941000000,
0.07892461631011112,-0.003902022125189716,-0.00019705494797330316,3095946000000,
0.026304952940997446,0.004349231497624076,3.0045989488977016e-05,3095951000000,
0.02697279745880354,0.02480660356789553,-8.44573110342226e-05,3095956000000,
0.05676547691273239,-0.008082002993427049,0.0004071797046432104,3095961000000,
0.04583653975755523,0.0026128973321021816,-5.350325266761642e-05,3095966000000,
0.05929709217259441,-0.03388012012256442,-7.9064194310145e-05,3095971000000,
0.03923926246272577,0.008102174160461292,0.00042452670978684247,3095976000000,
0.05664711022618913,-0.0032907226691215362,7.870280627578963e-05,3095981000000,
0.04978959148931807,-0.003741220921786519,0.00023539628899510695,3095987000000,
0.046993408168782454,-0.014382788488339723,-0.00013257477932888465,3095992000000,
0.04098201338818243,-0.017500906416332555,0.00038974823511960373,3095997000000,
0.014905288400577622,-0.0075906444109258495,5.3161401568910145e-05,3096002000000,
0.05128128308104811,-0.0030185683672481617,-0.00018016214798989222,3096007000000,
0.029039344630527243,-0.011226417271442276,-0.00017285276184632304,3096012000000,
0.016201170537556625,0.0038761320623011955,0.0002104523566632692,3096017000000,
0.03642785560776234,-0.0016464633486739243,0.00023516288801966938,3096022000000,
0.05391424840783263,0.008644706492207508,0.00013214137292649403,3096027000000,
-0.004571339190924586,-0.015157905717643845,0.0001665050943174492,3096032000000,
0.027798951422426756,0.0005356146165538,-2.6462207659350546e-05,3096037000000,
0.023576405589232987,-0.011096183240130845,-0.0004547743686564546,3096042000000,
0.028910374709419692,-0.021400817071661447,-1.994865882132923e-05,3096047000000,
0.0038003606537930362,-0.007606332502435571,-0.00019853610585773656,3096052000000,
0.03974984564737975,0.0031533545676527153,0.00011327968064633377,3096057000000,
0.02695772671129263,-0.001444342585210775,-0.00023667862163372083,3096062000000,
-0.01804613199225589,0.004255418901813359,6.422349026600081e-05,3096067000000,
0.029649458020033992,-0.023610682110636952,8.776264490077072e-05,3096072000000,
-0.0037193652222251745,0.007907733687240839,0.00023011544854353652,3096077000000,
0.0031736294824057367,-0.005540761949037949,0.000279138793190512,3096082000000,
0.015778704341492412,-0.005705064264308331,0.0001534100963585409,3096087000000,
-0.015555933354305402,-0.026270452030536937,-0.00011438633160676234,3096092000000,
0.0062320499056939555,0.019578763115325505,-0.00010910488816158764,3096097000000,
0.0031596938209347315,0.01807375841590613,-0.00019483013154806216,3096102000000,
0.010205851218514125,0.0012555626197041135,7.331264515258305e-05,3096107000000,
0.004940872405037938,0.001985406005429389,-5.910453776030727e-05,3096112000000,
-0.025698594970730952,-0.0005205021803800121,0.000316425810832936,3096117000000,
-0.010276825537931435,-0.01478569662602201,4.1029484907108834e-05,3096122000000,
-0.035687592383680876,0.01943900660964046,0.0002976025830632112,3096127000000,
-0.019362958029452655,0.010327357590348456,4.874440205459852e-05,3096132000000,
-0.01190577851583107,0.00203434370407873,-0.00013140245463146304,3096137000000,
-0.008715546177764082,-0.00498137718207157,-0.0001273944760685527,3096142000000,
-0.029531534022912725,-0.0023243564527424512,-0.00027101132334415775,3096147000000,
0.0031278129919345317,0.005202226762040223,7.422826883348556e-05,3096152000000,
-0.061184206440457134,0.006477549931489671,-4.168848410644616e-05,3096157000000,
-0.03547939598902056,0.019850514889180212,0.00010490215987432524,3096162000000,
-0.030683701721011578,0.0020342129226854945,0.00014917387994150622,3096167000000,
-0.034647160641844185,-0.005232476942878771,0.00022866180011331573,3096172000000,
-0.04661712214749249,0.010305984304456953,-7.841560824219806e-05,3096177000000,
-0.05012559381241899,0.005495594228440547,0.0002718680571585815,3096182000000,
-0.018279390555680352,0.007460376437347992,1.0124778681749872e-05,3096187000000,
-0.034775143051006874,0.008767527674790618,-0.00039199664216972753,3096192000000,
-0.035794268744469636,0.01930108157755319,-9.883187427172315e-05,3096197000000,
-0.025543251898230507,-0.007166866906819162,0.00028001378782779624,3096202000000,
-0.056639916908921804,0.015858562850065348,-0.00017613099231570374,3096207000000,
-0.055681329632874234,-0.02200248709498848,0.00042456738559225874,3096212000000,
0.057251552267471945,0.01906189693899957,-0.0001476337837967993,3096217000000,
-0.06903510983250212,-0.007149375952825242,0.0003235117829593244,3096222000000,
-0.047223745176214915,0.003607536189557811,6.239009772885663e-05,3096227000000,
-0.04931783570862923,0.008064402090760103,-3.076254963543359e-05,3096232000000,
-0.07007971996872973,0.017318360308273405,0.00038667693141929696,3096237000000,
-0.0730643815014101,0.0064848922475239,0.0005738957556831447,3096242000000,
-0.08007347591188488,-0.0195897894899752,0.0003678222698245302,3096247000000,
-0.057174581803119025,-0.0012663618249013618,-0.00014702608134372936,3096252000000,
-0.08261764631524551,0.02311769998954017,0.00048167307827424034,3096257000000,
-0.044193189589811374,-0.013156265333267693,-0.00014266620638234286,3096262000000,
-0.08941590131765495,0.005894818174080128,0.0003299145840561923,3096267000000,
-0.0860656320270167,-0.01657686207635603,-0.00029050276348983,3096272000000,
-0.08121017422953142,-0.012780936810941598,0.00014888987908033286,3096277000000,
-0.05819903726296752,2.3862481755797943e-05,-2.4216461038701926e-05,3096282000000,
-0.0815955264324254,-0.017632650322127522,-0.0003213909198370488,3096287000000,
-0.08647471007124465,-0.00020274258484293374,-7.167987828753027e-05,3096292000000,
-0.07187981429874701,-0.025965866323188414,-5.511558962736317e-05,3096297000000,
-0.08456165465483938,-0.006136009769910187,-0.00017316652980386787,3096302000000,
-0.11087262618001338,-0.012194062566872565,0.00013744035381198835,3096307000000,
-0.0865726430507612,-0.010073080013686059,-6.291359443780069e-05,3096312000000,
-0.10887562693521743,-0.031559128978610504,0.0001664320053101863,3096317000000,
-0.11787694388855299,-0.032391731026149784,-0.00014350816625888387,3096322000000,
-0.10747226405079267,0.0009432965119713895,-0.00016160075928079267,3096327000000,
-0.090889454850753,0.018318968268422338,0.00011872295093099151,3096332000000,
-0.1010601231967111,0.02196240801136871,-0.00027872165376207996,3096337000000,
-0.10176751638159584,0.02969226179171129,-4.10197054717168e-06,3096342000000,
-0.10294161458694435,0.011756461105109124,-0.00011507316744900392,3096347000000,
-0.14119423525361494,0.006965501188825215,4.810648860109133e-05,3096352000000,
-0.11312843884436903,-0.01630619838240368,7.975097094280244e-05,3096357000000,
-0.1031985129109216,-0.005681838546495732,0.00045576513894309554,3096362000000,
-0.1187037486657202,-0.005370539459404817,0.00023135047092135517,3096367000000,
-0.12224780854927665,-0.017160524543278533,-0.00020019036927828855,3096372000000,
-0.12255488957521633,-0.0030243365818820723,0.000379817403583536,3096377000000,
-0.12877613171695665,-0.002386723047647179,-0.00028496831011332914,3096382000000,
-0.10585139575914265,0.016692065456480852,0.00017304603669729098,3096387000000,
-0.10898438298156533,-0.010730936980339938,-5.983987969511719e-05,3096392000000,
-0.09941473392930578,-0.011294623877599667,-0.0004322949545334203,3096397000000,
-0.11963528819647208,0.0033156036151432864,-0.0001869669281750438,3096402000000,
-0.11837643017944707,-0.013252634780599563,0.00038608506673591143,3096407000000,
-0.12522531934850512,0.0025184831951724634,9.220385747519289e-05,3096412000000,
-0.08874453709424285,-0.006965037009303326,0.00013891353285816547,3096417000000,
-0.13615288251736277,0.00544800282900317,-0.00023769788478726178,3096422000000,
-0.13617975509840102,0.0013535659459550159,-2.0565972581564452e-05,3096427000000,
-0.12352837233125885,0.00631110910720297,-3.3145370112184e-05,3096432000000,
-0.14120594361488864,0.0027342775551200986,0.00011739193213181271,3096437000000,
-0.13695908865302614,0.005293771268856717,8.633849459504695e-05,3096442000000,
-0.10663140073310734,0.037330339540178815,-0.0001474611027032587,3096447000000,
-0.1001746072526565,-0.013440433162816222,0.00018382493332081524,3096452000000,
-0.15980733443963838,-0.02074756843150196,-4.679848128398032e-05,3096457000000,
-0.1561195997530589,0.015257472341189019,-0.00010437185321948863,3096462000000,
-0.1544886752596019,-0.015660653670758938,0.00016760131095886155,3096467000000,
-0.13600627523092698,-0.008174817929578944,0.00024146983750008227,3096472000000,
-0.13243292894730213,0.003093256230341224,5.235380362849682e-05,3096477000000,
-0.12875652496842585,0.010569859637241306,0.0004255189860611457,3096482000000,
-0.13312942901687283,0.002318599370614462,-1.7953139953997524e-05,3096487000000,
-0.10663892613394536,-0.003276232094694396,0.00016642179882481344,3096492000000,
-0.1342679418154609,0.018825306621591244,-0.00027243030836176054,3096497000000,
-0.12129419695576497,0.011469562387488247,0.0002286292636266044,3096502000000,
-0.16111616905447693,0.0006154788061165225,-3.745591156060755e-05,3096507000000,
-0.11373202565769547,0.010187023222791417,1.4097052194071812e-05,3096512000000,
-0.13066851073122573,0.034109399131896416,-0.00019625236628896208,3096517000000,
-0.14772792910148005,-0.04577319760133754,0.00019492589820505128,3096522000000,
-0.16824634510585681,-0.027819957353566478,-6.978342788521339e-05,3096527000000,
-0.1420696931862623,0.02105606794465376,9.851930338785204e-05,3096532000000,
-0.14818097285666224,-0.0409115409708484,-2.0775730609070093e-05,3096537000000,
-0.1746475582378456,-0.008334294738964364,-0.0001853347436587971,3096542000000,
-0.15653638643518306,0.004019789975517021,-0.00013065621262573277,3096547000000,
-0.13982300859419503,0.014078845543238863,-3.736914572971034e-06,3096552000000,
-0.16985274542355094,0.024021811368652862,6.680890085902738e-05,3096557000000,
-0.11942353037435333,0.006217672361889769,-6.916914057223444e-05,3096562000000,
-0.17733499053468937,-0.023299331756936492,-0.00012158040973799189,3096567000000,
-0.13366794846135674,0.00520019828088389,-4.67414557923748e-05,3096572000000,
-0.1646189100599874,-0.014480548423052523,-0.00012404278451161788,3096577000000,
-0.17270443930115487,-0.018246669351869402,0.00038101454522956445,3096582000000,
-0.14084844153766318,0.019604083616374567,-4.5523584980834705e-05,3096587000000,
-0.15892186721771523,0.009868400176161682,6.507130506990593e-06,3096592000000,
-0.15688347839755687,-0.005032253839422502,-0.00023876615938674367,3096597000000,
-0.14561454797904033,0.004870364778357702,0.00016877446633229307,3096602000000,
-0.14741613686719846,0.008766607649304821,9.193676559125624e-05,3096607000000,
-0.1515400808568727,0.02240369176030652,-0.00023548157018463492,3096612000000,
-0.16431362018903556,0.03305169133841621,-0.00035166097223936416,3096617000000,
-0.16803281363352757,0.009006982074007571,-0.00017221639071733912,3096622000000,
-0.17488109092043583,-0.020431984145073526,0.00028707913956635655,3096627000000,
-0.1576024036008088,-0.009978185668781347,-1.7401319167940342e-05,3096632000000,
-0.1280687069473854,0.0080604097972793,4.950271044180814e-05,3096637000000,
-0.13736486161647288,0.01118356606143109,-0.00015726273725326522,3096642000000,
-0.16403224026051966,0.008832417425007191,0.0003355887991773206,3096647000000,
-0.18355798838383466,-0.005606324076698499,0.000173680682384911,3096652000000,
-0.1649631244420622,0.0051225306757986585,-0.0006586717895290632,3096657000000,
-0.12335013980220204,0.024434304987614272,0.0002597194277233835,3096662000000,
-0.15463217298543655,-0.04699445770344257,9.810635049667315e-06,3096667000000,
-0.16047417492459015,-0.0196860693072131,5.2760603107205266e-05,3096672000000,
-0.18423355200793032,-0.005211116974453357,9.298384767509316e-05,3096677000000,
-0.14355115342638136,0.010198167384944007,-0.0004863116745006558,3096682000000,
-0.15194073449889564,-0.009039972050681312,-1.5145346106679493e-05,3096687000000,
-0.122068355807293,0.005399003858676687,0.0002539805186113583,3096692000000,
-0.1647784656447757,-0.01910766188779304,-0.00011915358700824239,3096697000000,
-0.16377575745035833,0.00847140851931862,0.00023956103005471559,3096702000000,
-0.18579565193197617,-0.0005514973613622745,6.095544770546701e-05,3096707000000,
-0.1333605802931273,-0.011925610198108201,0.00017528543872883138,3096712000000,
-0.17311856477292978,0.010552485112968787,-0.0004346051609974656,3096717000000,
-0.17775564870180485,0.0015520901246064908,-0.000498840693774289,3096722000000,
-0.17665928364897548,-0.000800703661694713,0.00010557894763925424,3096727000000,
-0.14724655250701515,-0.004036711957128837,-0.00019066800242047968,3096732000000,
-0.14948928219492713,-0.0001566085728565436,-1.3983598081585516e-05,3096737000000,
-0.14248820189098285,-0.018920490460473408,6.405204592144071e-05,3096742000000,
-0.1624269295685679,0.0020426640853575054,-7.756659675100807e-05,3096747000000,
-0.15060093146928671,-0.015612585759640807,-0.0001836166485734626,3096752000000,
-0.17327472291192444,0.004429379649791402,-0.00018456464118997852,3096757000000,
-0.18708963451344837,-0.014760632674266366,0.0003319215430014414,3096762000000,
-0.14682832436793547,0.022514116409935486,2.5817923882304716e-05,3096767000000,
-0.1433258964290837,0.0014525585472160152,0.0001241135745413574,3096772000000,
-0.14112127671765148,0.028501073558939865,-0.00017856717578540246,3096777000000,
-0.12929758587088988,0.0028181489693579684,0.00017073441182936835,3096782000000,
-0.16446417800492102,0.019599697038013512,0.00024654687218449514,3096787000000,
-0.13136177375867014,0.02190064115514912,2.0581458117307485e-05,3096792000000,
-0.17074537527619746,-0.0016221982716262831,0.0002615358268232828,3096797000000,
-0.1376682293626149,0.02175332730032525,-0.00016034905596244123,3096802000000,
-0.1687251040795136,0.004600284702029838,-0.0002406930350005297,3096807000000,
-0.11394187886900166,-0.009594895748319255,-0.00017902950120379844,3096812000000,
-0.09965926619448207,0.011862764124350967,0.000291553208176899,3096817000000,
-0.15432761077083804,-0.005719868698214982,-6.239262240008612e-05,3096822000000,
-0.13888320826317674,0.008116779775427246,0.00012098333930510379,3096827000000,
-0.11785367843120793,0.003807506631347717,-0.0005777869186731459,3096832000000,
-0.13176395909382296,0.00218543363659425,8.02056560971937e-06,3096837000000,
-0.15447360441062122,0.005428551576864473,5.6996509961902914e-05,3096842000000,
-0.12033851624786286,0.008570785722048859,3.37833481213222e-05,3096847000000,
-0.07701013736064771,0.013310414552111804,0.00010582678965528848,3096852000000,
-0.15201727822439484,0.0012552188918082182,-0.0002054875751007955,3096857000000,
-0.11820045663583943,-0.013764305152756454,-6.742563793254727e-05,3096862000000,
-0.13837483071292078,-0.008008335933846632,-4.2956918381741725e-06,3096867000000,
-0.1308788225234912,-0.0073060565037172814,-5.0755573145027e-05,3096872000000,
-0.157647328361029,-0.0049228394810091,-0.0002224937480796221,3096877000000,
-0.13345957198572744,0.009531947264008446,-6.098855213993253e-05,3096882000000,
-0.13366613187328572,-0.009648334651197722,2.8319153275296173e-05,3096887000000,
-0.1475178416781138,-0.00611904704826802,0.00012763066895915944,3096892000000,
-0.1283319003041187,-0.011742514419325018,-4.78149658054405e-05,3096897000000,
-0.1253580744190613,0.02144614752097007,1.446587747338451e-06,3096902000000,
-0.0989334394701081,0.02495427125274004,-0.00012736789200262574,3096907000000,
-0.09368946835172778,-0.00027432944026554795,-0.00022148395170616873,3096912000000,
-0.11932906926268332,0.007368162021218358,3.601931763722887e-05,3096917000000,
-0.12766802845871164,-0.002917488836737849,-0.00017518181701289175,3096922000000,
-0.10279809714667057,0.013010177344229053,-4.751502129699219e-05,3096927000000,
-0.10739892128847767,0.0013543013163273636,-0.00026101033805425825,3096932000000,
-0.12033360611367823,0.018791379001422817,0.0004388420791071267,3096937000000,
-0.10746317215390247,0.009715757072182796,9.503185294357079e-05,3096942000000,
-0.09967973235014198,-0.029809613662110167,-9.261337154184146e-05,3096947000000,
-0.11417272406719904,-0.028586015449995325,0.00032209858846905505,3096952000000,
-0.11506504250897692,0.0015958636243117068,-7.698882109220093e-05,3096957000000,
-0.12637103385807197,-0.009380451040067394,-0.00024792524243328045,3096962000000,
-0.07935510457991178,-0.001984532084459567,0.00045146680318755876,3096967000000,
-0.10553641949669561,-0.002445967903984778,5.318091184756312e-06,3096972000000,
-0.12550006909754807,-0.014773809714669664,0.00010688164883760725,3096977000000,
-0.09116315777281185,-0.0025977354545700807,0.00031402019733436985,3096982000000,
-0.10820878509015844,-0.012160828262077808,0.00018788388317814636,3096987000000,
-0.11031136798392462,0.01103350797090141,-0.00022204604057081873,3096992000000,
-0.12486199808456315,0.017902826642917907,0.000223905530324202,3096997000000,
-0.10261448219744417,-0.009155809074103415,7.105302110804114e-05,3097002000000,
-0.08946135028857988,0.012219963534689396,4.937494070462005e-05,3097007000000,
-0.0665178667194771,0.029900113984740885,7.410459188738273e-05,3097012000000,
-0.09320785974096929,0.003034952100076291,-0.00036164589454104514,3097017000000,
-0.0779312385587692,0.014986370872904787,0.00016984314714576,3097022000000,
-0.06888671984041568,-0.024900729612782797,3.908041678282374e-05,3097027000000,
-0.08916958975851158,0.00787787427462634,0.0003787934439261396,3097032000000,
-0.10355707252557696,0.0035744559706210955,-0.00015013858779070212,3097037000000,
-0.10297392898503113,0.01922251055690888,7.423763155243665e-05,3097042000000,
-0.07016600979292571,0.01629626659554531,9.050127894412189e-05,3097047000000,
-0.08619061858132597,0.016368664736408665,4.658174965346833e-05,3097052000000,
-0.07016619694281,0.0070522254857012965,0.00011408702200704066,3097057000000,
-0.055384468902500116,0.004453557414453525,-2.050550305507734e-05,3097062000000,
-0.06616236241015991,-0.005557922817187905,-9.876979969407318e-05,3097067000000,
-0.08115196624089625,-0.03245190291580428,-1.3466276382696646e-05,3097072000000,
-0.18573235520136894,-0.006984275966973324,-9.1949651404217e-05,3097077000000,
-0.03849245286097221,0.00970708983641422,-0.0001250472572658134,3097082000000,
0.02904910721996008,-0.009311637048501211,-0.00043484173547242736,3097087000000,
-0.17856488039137158,-0.006603509773377994,-7.499776151189094e-05,3097092000000,
-0.07485385312763009,-0.0005091993083593239,-0.000434403497335524,3097097000000,
-0.053752200991682896,-0.02250515484602856,-9.95598089717313e-05,3097102000000,
-0.040224286453296745,0.013580076078210272,-0.0002592874162643499,3097107000000,
-0.027323811208828677,-0.007510558136474353,-0.00020275236711999684,3097112000000,
-0.05903567563087227,-0.009833864085204994,-0.00048735187202539185,3097117000000,
-0.03737144597280281,0.022462770975105868,-0.0004977387377205915,3097122000000,
-0.023078879741023815,0.01939142173760984,-0.00011211123311958283,3097127000000,
-0.03950853553729613,-0.018043089464210925,0.0002750822546663701,3097132000000,
-0.04652576346826797,0.00527843887771886,7.821466343698172e-05,3097137000000,
-0.028136092649214142,0.004159478501413241,4.389742772592979e-06,3097142000000,
-0.03640687974360579,-0.017977035554838986,0.00010953227667340464,3097147000000,
-0.03625462607314053,-0.02960425872492714,0.000107848415004841,3097152000000,
-0.025827844839629285,0.017393809698670024,0.00017257783553723558,3097157000000,
-0.015892789555569303,-0.01021492218218543,0.00017641697061384194,3097162000000,
-0.038331150639637844,-0.010693388628737439,0.00035595801163016956,3097167000000,
-0.009437890206395422,0.010104735271084034,0.0003328103518549339,3097172000000,
-0.010069866774538088,-0.020647512018344083,9.03769916268855e-05,3097177000000,
-0.03112666232996627,-0.02377755302274718,-8.312150205088006e-05,3097182000000,
-0.04994548181496928,0.00324905889413017,0.0005639251080670175,3097187000000,
-0.026961082231958235,-0.02088512693559695,0.0003427000987144783,3097192000000,
-0.010311027856949482,-0.020093493063004415,-0.00014606583594439505,3097197000000,
-0.015406117327045008,-0.009082580100005221,0.00036293978736309855,3097202000000,
-0.029035829103290334,-0.0008210869145699647,0.0002463714911703054,3097207000000,
-0.016729020800539306,-0.04722164798012204,0.00036109211715891173,3097212000000,
-0.008157192350451342,-0.000494209697331458,-0.00025370296108064125,3097217000000,
0.012777243742331185,0.0070581125835126,-0.00012813477286328898,3097222000000,
-0.019413628468258108,-0.012431523501193073,-9.963252481432066e-05,3097227000000,
0.0197983236101309,0.04594015847649627,0.0001280044501461853,3097232000000,
0.012960329667471293,-0.0148361885290475,0.00011023611444663601,3097237000000,
0.013673640176955045,0.0034022909963460257,-0.00016603278295397594,3097242000000,
0.003984625112222557,0.025015786768018897,-3.0042249358458342e-05,3097247000000,
0.014604416683547845,0.004761714681418304,0.00012112400848020296,3097252000000,
0.03535169757280266,-0.030958235847201622,0.0001393441980451249,3097257000000,
0.0510993127899229,-0.009589931148935119,-0.00020424145656553324,3097262000000,
0.007833400750864524,-0.03121996787059864,-0.0003230221373656007,3097267000000,
-0.0022272852820862856,-0.04907647644306989,-8.768455505994935e-05,3097272000000,
0.024597628141746784,0.01441893498540239,9.394971213488591e-05,3097277000000,
0.02358961020507116,0.007962179091939973,9.252007813097561e-05,3097282000000,
-0.013590661937842412,-0.0005293539825349632,0.00020719744267902853,3097287000000,
0.008928211430504306,-0.03339502953586866,-0.00013758201179594104,3097292000000,
0.03817902488319576,0.008520260719564413,-5.5182981700594433e-05,3097297000000,
0.02089886506620484,0.015209722932644956,-0.0001861943320161987,3097302000000,
0.020356501992940874,0.0060160281612548295,-0.00018350624626280426,3097307000000,
0.05819515259540197,-0.0033576354250648894,0.00011227430390099003,3097312000000,
0.03154704063111757,0.018678823388413625,-0.0004200733531114142,3097317000000,
0.013911797276102044,0.012365514595663903,-5.1193493343114376e-05,3097322000000,
0.025689515836472138,0.010744188167346283,0.00021119137037399984,3097327000000,
0.010543227802065055,-0.03882562768394102,-0.00020621183907412047,3097332000000,
0.05175173946585955,-0.016430355586357366,-2.55527673633487e-05,3097337000000,
0.027218044848269944,0.007065873999234475,-0.00028410799059181086,3097342000000,
0.045971702041749274,0.01273684521229943,0.000520309680465942,3097347000000,
0.0152948474387933,0.010341883819218996,0.00036673899858846195,3097352000000,
0.06678437022028275,-0.011577928154093482,-5.60808578651689e-05,3097357000000,
0.0680236226797016,0.024052352056648293,-0.00033732326821885007,3097362000000,
0.025800905147911255,0.012711571051283515,-0.00027563625737343675,3097367000000,
0.053658753408569786,0.011696828910208566,0.0006458465746334621,3097372000000,
0.06244891386818293,-0.023613978713902757,-0.0003736423420679398,3097377000000,
0.04681508583073403,-0.0075551032099092025,-0.00021000018179806858,3097382000000,
0.03158519702487354,-0.0243883974176229,-9.497903398504606e-05,3097387000000,
0.05519184925524574,0.0016236829075212279,0.00029421066858502257,3097392000000,
0.045440284181473875,-0.007578402297043646,0.0002736042490501093,3097397000000,
0.05114596676560668,0.012565116702098278,6.761624860331282e-05,3097402000000,
0.058099713322114915,0.006535297600138163,-0.0001489289773526808,3097407000000,
0.026915612966517122,-0.014912159212552288,-0.0003425762415240765,3097412000000,
0.05001868501091168,0.007366751274491276,0.00023457298331335162,3097417000000,
0.05265604865350964,-0.003150260787116681,0.0001834580105381649,3097422000000,
0.06307926140150528,0.028204680396593247,-0.0004939898967764643,3097427000000,
0.029143223073646016,0.008405459718524893,0.0003524834300356408,3097432000000,
0.074950585112584,-0.030349697297233028,-8.125814656455163e-05,3097437000000,
0.025783154830402596,-0.006878049861047487,-9.27328637802434e-06,3097442000000,
0.09154501480455657,0.012621475113277537,0.00014298349578875983,3097447000000,
0.09131213995999232,-0.005013466683148913,5.3780124516285104e-05,3097452000000,
0.10633496671466697,0.03257352283910095,-0.0002908986657495845,3097457000000,
0.08404242616115504,-0.00912530185181884,6.665988677624963e-06,3097462000000,
0.11626475179397798,-0.013619701595073839,0.0003173549045503458,3097467000000,
0.07610891261617961,-0.0012063306353904243,-0.00022911634281507263,3097472000000,
0.072784060841427,0.035322562210560696,0.00019286318225458565,3097477000000,
0.11863553991740924,-0.0005751316395347791,0.00025871724206611693,3097482000000,
0.12470721534518663,0.02254564477802637,-0.00011092286894210061,3097487000000,
0.13547955152610594,0.0012031817408367342,-0.0002568242695980971,3097492000000,
0.050617395441452565,0.008293580235883192,8.630528715370442e-06,3097497000000,
0.09930826750148157,-0.0033101619620463426,0.00011645299686775786,3097502000000,
0.06579378955132073,-0.01858341365231106,-0.00016314285821048444,3097507000000,
0.08952783600887962,0.008983769317325398,0.00014861003275812588,3097517000000,
0.11972251700980432,-0.0028141289925926113,-5.773546595204536e-05,3097522000000,
0.13116885603601874,-0.0039059069043782995,3.561991446245468e-05,3097527000000,
0.106844318713459,-0.02107107380101458,8.871095963561401e-05,3097532000000,
0.1235357011472407,-0.03297568914982726,0.00035811365170079133,3097537000000,
0.11577927148926591,-0.033697759099588984,6.717352352781965e-05,3097542000000,
0.11173228962444659,0.020826512917843525,-8.10039114654736e-05,3097547000000,
0.11657884314252853,0.02036333275624651,-0.0001099412519714896,3097552000000,
0.1004079349976342,-0.01666283751483317,0.00017546238684644174,3097557000000,
0.1333266091808554,-0.0013114652833160845,0.00028561960703517807,3097562000000,
0.1485671386196295,-0.03359909162106597,0.00019667325364831377,3097567000000,
0.09497888050799554,0.008919037590105473,-0.00016803896055240264,3097572000000,
0.13476092034777165,-0.02692130303828686,0.00018003716669169338,3097577000000,
0.14031084757393789,0.0024062331826957637,-5.215277709122972e-05,3097582000000,
0.13934732612845413,0.012412837195781037,-0.00014657513385925547,3097588000000,
0.1266029331631477,0.031020541003320395,3.854371683482796e-05,3097593000000,
0.11515809363592044,-0.003251285424262354,-6.592427634670165e-05,3097599000000,
0.11364087131112768,-0.01716365621429063,6.605455706609786e-05,3097604000000,
0.15077227176117447,0.003162425201748545,0.00025049968567989915,3097609000000,
0.1345993587456255,0.021596119308729494,-2.8186938315889693e-05,3097614000000,
0.1535129648139429,0.0035697620343406655,-0.00022451512859130996,3097619000000,
0.1204689132957923,-0.0039256770651467715,-2.735100309203639e-05,3097624000000,
0.16561783155928622,-0.020110416551815946,0.00015392575959002615,3097629000000,
0.1429518677424994,-0.003922587672441496,0.000401741789991452,3097634000000,
0.1414932448332519,-0.003012958831622355,-7.111226092786061e-05,3097639000000,
0.14615381910680475,-0.02848912746948514,-3.559697838726468e-05,3097644000000,
0.1399381487586878,-0.028061301896327665,0.0001713708300048954,3097649000000,
0.13193757698183256,0.008329031659095147,-0.0001941589575064283,3097654000000,
0.13730254769124628,0.011025076908156038,0.00018078013149091588,3097659000000,
0.1398620281331493,-0.00010723055347927266,2.4407353006796963e-05,3097665000000,
0.1586709702487948,-0.024397446780124607,0.00020710273800395108,3097670000000,
0.14755385497530046,-0.0018912472739135398,0.00021201297849329884,3097675000000,
0.1316687440356266,-0.03877117323381579,0.00014836151725861898,3097680000000,
0.12352411872716174,-0.019177051487705758,0.00011580182431250442,3097685000000,
0.1469938087532834,-0.005908516338628019,-0.00018544373158700499,3097690000000,
0.13230169081949658,0.005549382024377183,0.0001069139958742008,3097695000000,
0.13258445111945985,-0.04407116895363434,0.00024694107360516133,3097700000000,
0.1680669638037277,-0.01172938236059579,-0.00020639221947827915,3097705000000,
0.1622265613262704,-0.015256408118050922,0.00032692104364533863,3097710000000,
0.15689046155765002,-0.010134303026826854,-0.00014038671731852727,3097715000000,
0.14837343939425965,-0.02817329954056209,5.006874000874445e-05,3097720000000,
0.15089020381456175,-0.007394365750606877,0.00035397100315884695,3097726000000,
0.18761183336167456,-0.017668445547931073,-2.8718338891279627e-05,3097731000000,
0.16557031782836537,-0.001383599910893949,-0.00012779553982939128,3097736000000,
0.16298928381872826,0.006291073175398596,0.0003600910462591993,3097741000000,
0.13482965061540308,-0.016327935387681004,0.00011282816358402455,3097746000000,
0.14956983302562996,0.0017668940954895917,9.264033525082852e-05,3097752000000,
0.16342376455023075,0.031716839866377446,0.0003137886153396843,3097758000000,
0.13141062182454674,-0.046732526841008974,-3.743339956033189e-05,3097763000000,
0.17414923994793383,-0.012643558989357758,0.00010098962203280317,3097768000000,
0.17369984325583226,-0.009590311611348568,0.0005339525401368822,3097773000000,
0.16407765232311192,-0.009777334388287106,1.653547187298901e-05,3097778000000,
0.17207393568523366,-0.031007201450945928,0.0003928479711131665,3097783000000,
0.16430715336422738,0.006289175972671484,-7.2485863567596916e-06,3097788000000,
0.17219308728571014,-0.019187022879549355,8.161034200158975e-05,3097793000000,
0.14465531188513983,-0.010482791536213173,0.00020909946020768327,3097798000000,
0.17043769528175215,0.018708817201886968,1.2965416176270145e-05,3097803000000,
0.17280402632143615,-0.019241861611347784,0.00026576122606864155,3097808000000,
0.1467127666240858,-0.01521449006126363,0.00010039328827922174,3097813000000,
0.17775964411120976,-0.008672237543104512,0.00030485125441021764,3097818000000,
0.15343492659984348,-0.040882376441887996,-3.1495390501329985e-05,3097823000000,
0.16230897245882275,-0.013989169955868101,0.0002192851984806496,3097828000000,
0.16814293428035285,-0.02771822702667325,0.0003337781441918103,3097835000000,
0.1772621511613778,0.03760877908011315,-0.0002634959875590074,3097840000000,
0.16544608055434046,-0.017531232340347022,-2.674658211897579e-06,3097845000000,
0.15510475248132302,0.0011498522145394346,-6.67702203156147e-05,3097850000000,
0.16051850173817928,0.014062973391537444,0.00019402336516711403,3097856000000,
0.14803281113697034,-0.032114004695082035,0.00019310117193243435,3097861000000,
0.17942721856443647,0.0023846872967482457,0.00014209849266991616,3097866000000,
0.1851713905457456,-0.024553180686002013,0.00010303959845605644,3097871000000,
0.1687717595469969,-0.012042406926964216,-7.906652032849941e-05,3097876000000,
0.16787349916677463,-0.006955818219978526,0.00019785093050263708,3097881000000,
0.16250407143840226,-0.0063146332930015285,8.770322086704168e-05,3097886000000,
0.1534708274809867,-0.03387644631455077,0.00012808195653748474,3097891000000,
0.17961059756639003,-0.03428266968494729,-1.3808237801251307e-05,3097896000000,
0.13826596045809925,-0.029227692510952065,-0.00040782360268004647,3097901000000,
0.14136981084576006,0.015557161551196052,3.0075925189320513e-05,3097906000000,
0.1568795696948597,-0.008983121768683171,0.0002493771719248443,3097911000000,
0.1398342097702241,-0.02822638627837543,0.00018193520351894626,3097916000000,
0.14414211602130134,-0.013937430652082083,0.00029547696523667696,3097921000000,
0.16465647191301314,-0.01490010121123721,-0.0001317185193899656,3097926000000,
0.13732621741651793,-0.01702549294484681,-9.704933030559791e-05,3097931000000,
0.16513887510829722,-0.04140189330520381,0.00010398212468127923,3097936000000,
0.14290329858743164,0.009264897390814611,0.00046644071424324456,3097941000000,
0.1514553693845599,-0.007616609170236936,0.00025598931108761013,3097946000000,
0.13235911233769246,0.02359677641349714,0.00029130809465274376,3097951000000,
0.12948109472632333,0.005999173587360599,4.295237060598589e-05,3097956000000,
0.1480745059675473,-0.03730301116192455,-1.7550649407443503e-05,3097961000000,
0.13211221297813483,0.01067944226775402,0.00018348216489411873,3097966000000,
0.14609200101159442,0.02373669978885466,-0.0003046624337410651,3097971000000,
0.12901500957196496,0.010706429648474252,0.0004638556981091921,3097976000000,
0.14197620140695594,-0.004156935799472733,-0.0002024869713441072,3097981000000,
0.16186798654200904,-0.00394655017410682,0.00033765775301298497,3097986000000,
0.1681928113904991,-0.029218010644264467,0.0003570096882785236,3097991000000,
0.08808134063397788,0.05470423503440058,6.188929638646586e-05,3097996000000,
0.15296243639284865,-0.004872639028685543,-0.0002107299159385803,3098001000000,
0.14123440061888734,0.013221189782558911,0.0003141156097249939,3098006000000,
0.12842837257758288,0.04426089190643681,9.597546405144875e-05,3098011000000,
0.15998922803319557,-0.0537261747010373,0.0002573711217590412,3098016000000,
0.09283479890279465,0.014887530497632709,7.114808030484766e-05,3098021000000,
0.15838560477862532,-0.01781734321573075,8.735482087839983e-05,3098026000000,
0.1370375746896166,-0.03370777485846175,3.7712830961893574e-05,3098031000000,
0.14674164015567043,0.007389803477095127,0.0006489600278180662,3098036000000,
0.17145245259463016,-0.044390670833433475,-0.00010898768747802696,3098041000000,
0.15463052904811816,-0.0012430174990764493,0.00019941704577944937,3098046000000,
0.11976112528582268,0.00657845817748468,3.252875071781301e-06,3098051000000,
0.1338957355560472,0.04740613693716437,0.0003189494629086964,3098056000000,
0.12125183171750117,-0.01920481817903835,0.000311252749606035,3098061000000,
0.11776948187568387,-0.015362730555400604,0.00022557314761272108,3098066000000,
0.17569563304475036,0.0010997073742512638,-0.00023398070191991095,3098071000000,
0.1443784800335175,0.043356139938029524,0.00017122086015138987,3098076000000,
0.1698337907175389,-0.0030628925421394004,0.00038343708957808717,3098081000000,
0.15585282545955903,-0.02011037988705213,-0.0003340376332427323,3098086000000,
0.12694124914945312,0.030586881888761443,-3.694416002298387e-06,3098091000000,
0.1344690310199811,-0.013554576103631073,0.00012534478041296824,3098096000000,
0.13242153569917647,-0.03983311126867107,8.093472779079845e-05,3098101000000,
0.10680157970688245,0.006988605922930449,0.00010237079963350248,3098106000000,
0.17231519239357443,-0.013890006191681367,0.00011075897925634442,3098111000000,
0.13721581784243053,0.015006066620879997,2.3974416645186435e-05,3098116000000,
0.12882270462690557,-0.002632815656056102,8.946185689873768e-05,3098121000000,
0.16762398945518234,-0.027284423762160087,-0.00010181854094053035,3098126000000,
0.09230060329571033,0.03361807155417849,0.0001575056182497988,3098131000000,
0.14518205533455697,-0.011268590393052223,0.0002908025708605337,3098136000000,
0.11231041833511872,0.0021294540211359214,0.00024409851929869033,3098141000000,
0.11852331578019823,0.02904514382580628,0.00011997994294817585,3098146000000,
0.17528405495894397,-0.01449967781363357,-0.00015799434848371943,3098151000000,
0.12843930178981108,0.03305565146515975,2.3541468974502153e-05,3098156000000,
0.17803921408235068,-0.01846759832240511,-7.342252023774686e-05,3098161000000,
0.12664161611816904,-0.0265494718054236,-0.0002689602121806452,3098166000000,
0.15983760127339733,-0.04141309288047777,-8.80229791793491e-05,3098171000000,
0.13171333431461674,0.025141781908924448,-0.00027538924970954543,3098176000000,
0.12300296011031381,-0.0019164259723900828,0.00028886790596904436,3098181000000,
0.1423115810008516,-0.006678267338507279,4.297193977239639e-05,3098186000000,
0.0798236849460032,0.03052152652257441,-2.1450572808073454e-05,3098191000000,
0.15354143374443788,-0.01429241848897141,-5.131321272338813e-05,3098196000000,
0.11528206740195243,0.006405691154781555,0.0003518088988739279,3098201000000,
0.1330530783813483,0.010839003986129725,0.00032318814172706896,3098206000000,
0.13464223617411236,-0.03236218026919707,-0.00027159345121901353,3098211000000,
0.0577056466872404,-0.0001311732993473473,-9.679893531874006e-06,3098216000000,
0.11761214484855656,0.01468784570014177,-0.00020787604302584774,3098221000000,
0.12065585599571307,-0.0017508221520548001,0.00012905604173329467,3098226000000,
0.12538080922785177,-0.022402350574950512,3.762727008771899e-05,3098231000000,
0.08235208044165236,0.037988579755193035,0.0003663463406489782,3098236000000,
0.13836980046004363,-0.019700595739087445,-0.0002609681682353228,3098241000000,
0.12706366982972522,-0.014833000067441204,0.0003836571133402912,3098246000000,
0.1040564547423163,0.02041958289061524,-2.248382061127897e-05,3098251000000,
0.12422288222532482,0.0008642924706194727,8.822143637892262e-06,3098256000000,
0.084034875772365,0.004078346058991194,9.321417459986326e-05,3098265000000,
0.08951964087509558,-0.021126713263637915,0.00031313456395482307,3098270000000,
0.1152800733399895,0.0032096696647132186,-1.3209090332565079e-05,3098275000000,
0.10047797445380756,-0.02095731596244898,-0.00011225513590773682,3098280000000,
0.10286234894256456,0.0016112526269626715,7.22123060057926e-05,3098285000000,
0.08364622177600554,0.01249521094721978,-0.00019973291899205448,3098290000000,
0.09677795283961256,-0.004071146589074185,-0.0001558268333005359,3098295000000,
0.10366187041643443,-0.01350642126349564,0.00020117957405307768,3098300000000,
0.0960115980795443,0.022957885827852596,0.0002471654224213785,3098305000000,
0.09235612261558716,-0.008913382129984883,5.289010067693243e-05,3098310000000,
0.1074259995072996,0.003859407607839289,-2.0448472596476836e-06,3098315000000,
0.11076622720559876,-0.007630282923329967,0.00017340659040761695,3098320000000,
0.07758548209335471,0.006057154092121644,1.1732608380548727e-05,3098325000000,
0.06442872172253791,0.0012503795234586976,0.00018174858041241455,3098330000000,
0.0861384717676574,0.006020929834229585,0.00021710098458635853,3098335000000,
0.0790707468810798,0.030145570492784848,9.242660701172466e-05,3098340000000,
0.09391609580877691,0.01085980446134994,4.9716964489147846e-05,3098345000000,
0.084906409501953,0.033887041353908305,0.0002851637819412957,3098350000000,
0.08083864202376063,0.011270255848392674,0.00012203687461775422,3098355000000,
0.08626282120633164,0.004007936274737953,0.0002659987051653914,3098360000000,
0.09828047831817761,0.011306825496383035,-0.0003645708303964836,3098365000000,
0.06456988852890175,0.00838051958206703,0.00010196162852669043,3098370000000,
0.07991691504844695,0.01758604016257421,2.4107088668480393e-05,3098375000000,
0.05333910941110853,-0.01368738057993998,0.000201556185675713,3098380000000,
0.07723293824489083,-0.002646255342636775,0.0004837948616869226,3098385000000,
0.09609761341914234,0.01897411787508231,0.0002582299786652618,3098390000000,
0.08572484261224214,-0.009384946661870928,-0.00010899159715721517,3098395000000,
0.09042611334844315,-0.0036176159161164997,0.0001659213176022563,3098400000000,
0.06442421513848828,0.016427907220748134,0.00014137107526755328,3098405000000,
0.074283414370583,0.024206646201978852,0.0005584475677104079,3098410000000,
0.08889391082509397,0.008308465365267888,-0.00021235565835882368,3098415000000,
0.08310983399779295,-0.022840383361421458,-0.0002238411451320726,3098420000000,
0.07927567448926268,0.013589237793390548,-0.0002660072640890136,3098425000000,
0.10077276799919566,0.010854188527221694,0.0003474776107601975,3098430000000,
0.07289746483745631,-0.025395271914359654,-5.1776666281728724e-05,3098435000000,
0.08169055969767926,0.019762523924243706,-0.00022884326089685203,3098440000000,
0.04964815403414473,0.03500986212320403,9.572039615328638e-05,3098445000000,
0.04998344452976208,0.005218923095096295,2.169517457153757e-05,3098450000000,
0.08101546662570842,0.031193004371573303,0.00013630711585203492,3098455000000,
0.07537647168706438,0.04134500527607269,0.000490853274712111,3098460000000,
0.056318412231584014,0.001029234008631128,-5.903099398291072e-05,3098465000000,
0.04989594690553796,-0.001467659406993312,-0.00013950338284662405,3098470000000,
0.07752752234501417,0.007251910694922705,0.0004104385716777316,3098475000000,
0.05953146073526176,-0.026097581494549008,-0.0002957202454348316,3098480000000,
0.08221693567400859,0.011706160661954451,-0.00040000569286840164,3098485000000,
0.10462521870491184,-0.012650502372969458,-2.018750326993768e-05,3098490000000,
0.09670121257563076,0.018495622299498707,-9.749184961062311e-05,3098495000000,
0.0921809874153755,-0.011558483738184477,0.00022583650121694925,3098500000000,
0.0773981886545343,0.022154450762563865,0.00020100183964324257,3098505000000,
0.03606082499883104,0.00481426018404192,0.00010205200617800683,3098510000000,
0.051734127832149396,0.004599051669720481,0.00037195440842779454,3098515000000,
0.049378636869696,0.021004727803158447,0.0001879134974044389,3098520000000,
0.056863539057678096,0.00031576389361223406,-0.00032091167247035816,3098525000000,
0.060698278333244725,0.00028643465551321393,-0.0004958803069792405,3098530000000,
0.10301533879536132,0.01852947536153393,1.6496477324421805e-05,3098535000000,
0.07351483910473765,0.02222668942059467,0.00012446991345494161,3098540000000,
0.05115828409815948,0.02581336224019726,0.00011390719801593665,3098545000000,
0.09054753902618531,-0.021822282765362844,-1.1179820011303227e-05,3098550000000,
0.10660700683680055,-0.0002572854878645642,-6.466965506215822e-06,3098555000000,
0.060559481176720865,0.013990495629375703,0.00038067535709421425,3098560000000,
0.046226792190271336,-0.01897516278287482,-0.00026125053934065556,3098565000000,
0.048613128522100243,-0.008310776571554376,-0.0005237971094959235,3098570000000,
0.07118107136701228,0.0020167777785588957,0.00011900858122595572,3098575000000,
0.07392054532175799,-0.0017336608529590542,3.500988544350101e-05,3098580000000,
0.02933727574937177,-0.010861847386582017,-0.0002905077318025702,3098585000000,
0.07359955040275659,0.03045661975927124,4.180063648322372e-06,3098590000000,
0.05030948932954731,-0.01744174332062797,-0.0005399601593556998,3098595000000,
0.07513647340806555,-0.027754193477195818,-0.00011228997585826558,3098600000000,
0.06104179973315438,-0.01933518498157496,-0.00016204657121634113,3098605000000,
0.03682012728627685,-0.029646442715410944,-0.00021605385561975694,3098610000000,
0.027081407498256976,0.005796799907580414,-0.0004623550091437356,3098615000000,
0.05048270307722662,-0.005945699956563657,-0.00036098336091468675,3098620000000,
0.04348558968678887,-0.02511479181407232,-2.5615594193819806e-05,3098625000000,
0.037259131650123976,0.006404345119034807,-0.000504434293832685,3098630000000,
0.03238986253050452,-0.0020015288766235275,-0.0001882979151536411,3098635000000,
0.009532027578017382,-0.009838119685412478,-0.0004893515533361533,3098640000000,
0.06309052101252621,0.008547988433971932,0.00021801645371730678,3098645000000,
0.024361789853020017,-0.034065422852082514,-0.0003114923448203963,3098651000000,
0.033106935792932266,0.0029353884075574753,-0.00023633668142813535,3098656000000,
0.08445055308585642,0.0001681304512094351,-7.201252774835022e-05,3098661000000,
0.01950278840947435,-0.00815672971073579,6.145847707153395e-05,3098666000000,
0.0036592462738228443,-0.012612371737505994,-0.0006533923358424895,3098671000000,
0.03753487637303976,0.02202236890322195,0.00025581412596946336,3098676000000,
0.0540804681012743,0.01424923853642784,0.0003300665638569537,3098681000000,
0.0033143922853841323,-0.009165221102337763,4.547411799394618e-06,3098686000000,
0.024433164211842644,0.002293046173670884,-0.00014347523517652274,3098691000000,
0.02344625177020238,-0.01443878344295605,-0.0003312611218714291,3098696000000,
0.02939134233819472,-0.01286895453373205,1.0120016805115389e-05,3098701000000,
0.016538962962306197,0.014848668470420448,-2.789272487583167e-05,3098706000000,
0.03474109754417373,-0.018147245148129723,7.031924896056052e-06,3098711000000,
-0.007631991802751818,0.009066853738565021,-0.00022711653922032285,3098716000000,
0.01733195604364075,0.018827035913771613,-7.412637795938486e-05,3098721000000,
0.0029971580463462565,-0.002124033600337448,-0.00020234535455220372,3098726000000,
0.013244015124433938,0.0044078445433169515,9.575134674159793e-06,3098731000000,
0.04322371154842249,-0.017959328159572956,0.0004846664119713886,3098736000000,
0.02271936817770378,-0.004615339384010897,-0.0002503592755515668,3098741000000,
0.02305360746679241,0.03608610058480065,8.733700894029561e-05,3098746000000,
0.016499618046457772,-0.0007406266378463626,6.182525917360323e-05,3098751000000,
0.02108602905511756,-6.672388043848024e-06,-0.00012439745529993149,3098756000000,
0.010709000334037554,0.010990869741662513,-0.00016834861905682647,3098761000000,
0.005649137004471346,-0.03705316044424691,-8.422209619843082e-05,3098766000000,
0.0033756574847777668,0.00011366085848837047,5.4697245742101034e-05,3098771000000,
-0.02577396451891005,-0.004783985629734005,8.628739388374524e-05,3098778000000,
0.0011604819634245598,0.0023542532029074796,0.0002014021823142801,3098783000000,
-0.012700129402745534,0.004910258079352149,0.00020097507914391288,3098788000000,
0.006813020572941939,0.005503402274771922,-0.0001554728958367782,3098793000000,
-0.026268656436486112,-0.01607475260589239,-1.8773553191717773e-05,3098798000000,
0.027160806876548888,0.010224696949694334,0.0002928454879981734,3098803000000,
-0.008654375735712691,-0.03993746514473104,0.00018623918021639632,3098808000000,
-0.02274447136807682,-0.005817499803833824,-0.00026725456736779866,3098813000000,
-0.012185178854859544,-0.012340767549091513,0.0004155925187209507,3098818000000,
-0.03540902848390576,-0.011167661386630489,-5.7980557214965945e-05,3098823000000,
-0.04378501013960914,0.00311975212498431,-0.00024747312472201424,3098828000000,
-0.019329892466148135,-0.0060442846877038475,-5.171337774728606e-06,3098833000000,
0.0022173923369997427,0.026652808536631194,-0.0001499316833971023,3098838000000,
-0.02298203165599255,0.020645052702110644,0.00014284435155910663,3098843000000,
-0.03529847923294403,-0.006707099603232697,-2.9127061450509524e-05,3098848000000,
-0.05592424270263484,-0.017888659168656205,-2.1113930271078922e-05,3098853000000,
-0.02008300475686183,-0.018758051236589576,-2.8271906425609752e-05,3098858000000,
-0.04609593936597185,0.0006049826108958387,-0.0001250482100020611,3098863000000,
-0.037270259325277354,0.007791126498526174,0.00012913203345368658,3098868000000,
-0.033126774416786964,0.016049289483901746,-0.0003273873579706822,3098873000000,
-0.04492922420206258,-0.008860495240372697,-0.00031365151333322887,3098878000000,
-0.053861400501925595,0.007546028482648832,-0.00010431889445406096,3098883000000,
-0.049280719331963554,0.004060475133329921,0.00015518781035747501,3098888000000,
-0.03677344005603832,-0.04181779547082622,0.00012151100745366243,3098893000000,
-0.07963036595890396,0.01894231408184339,1.5536116322049833e-05,3098898000000,
-0.036118488279176936,0.014120286314533815,9.749178033773999e-05,3098903000000,
-0.052660810848552904,0.0054623001801592675,-0.00020786208769568888,3098908000000,
-0.052695503083271235,-0.016708422497544274,-3.947203020701995e-05,3098913000000,
-0.06681243834775952,-0.02349115753346224,-0.00014625766661498682,3098918000000,
-0.05152678541362778,-0.026039140317300587,-0.0004334745839185245,3098923000000,
-0.056339810575893635,0.0005077549175915327,0.00033814902544402004,3098928000000,
0.03953229290046327,-0.013353105006141529,-5.5199928291148375e-05,3098933000000,
-0.043935458246710336,-0.007597581880734968,0.00020737769768930232,3098938000000,
-0.07729990787116034,-0.010066985004650692,-0.00012057329044702235,3098943000000,
-0.19686485450112,0.033167303298996045,0.00036819235667637473,3098948000000,
0.06854271493922173,-0.037320759530528325,0.0003858525265717759,3098953000000,
-0.09023377758053255,-0.003235800060405611,0.0005182279767585293,3098958000000,
-0.07520687245906055,-0.030888243112597018,-0.0001482459233147371,3098963000000,
-0.07370234493095669,0.01568407358100762,-2.815763211338744e-05,3098968000000,
-0.08738831538181274,-0.006988711266376316,0.00011929157547602813,3098973000000,
-0.0744115916716434,0.007272885444727227,0.00014404249127840903,3098978000000,
-0.057911691616476677,0.0007731196540513049,0.0003033566686942911,3098985000000,
-0.09713549819002115,-0.0016005464155432983,-0.00012671372020278172,3098990000000,
-0.10069572311469811,-0.0011859355949538886,-0.00031973608275875004,3098995000000,
-0.07735198297652846,-0.01084950902765253,-7.211344891611991e-05,3099000000000,
-0.048482530015051276,-0.02294051284738763,-0.00010839828211734869,3099005000000,
-0.08773481267199289,-0.002777513432403397,0.00019508211039322856,3099010000000,
-0.09993066691666219,0.003759757125168556,-0.0004200430877907864,3099015000000,
-0.07771228532885138,0.0056030907144362305,5.741695842190265e-05,3099020000000,
-0.09235842584017438,0.0024093843550724685,0.00023236639227947186,3099025000000,
-0.08729937751524276,-0.024161422347016674,6.8633767455699134e-06,3099030000000,
-0.1051834319206387,-0.013664871536033869,-0.00013343681709644588,3099035000000,
-0.09108664537974487,0.02890317187150286,-5.3182980555358996e-05,3099040000000,
-0.09308354235044153,-0.006148843745701281,-0.00012261595545245805,3099045000000,
-0.09863939559498906,0.0053638018188282895,4.653439535643298e-05,3099050000000,
-0.09652725250583945,0.029617596036781935,0.0001670935338348701,3099055000000,
-0.08077123173323117,-0.031077676831761696,-0.00028470195295874593,3099060000000,
-0.07631616187348084,0.002560860113615607,8.788826298573975e-05,3099065000000,
-0.11129294392791182,-0.008675653858821394,0.00015891188775522767,3099070000000,
-0.11111527069337848,-0.01104850210022053,9.473849772532288e-05,3099075000000,
-0.08916487639650811,-0.005097117856196695,0.00010861565236856985,3099080000000,
-0.11045355716532768,0.008718958989840991,-0.00014104340078639673,3099085000000,
-0.0898557280715025,-0.016782663849079466,0.00025970637067829227,3099090000000,
-0.12464757962567402,-0.014980256199917403,0.00046837523007435474,3099095000000,
-0.11370789283863768,0.0002711022711953349,0.0002944932318816267,3099100000000,
-0.0945250886865236,-0.007794619522273619,0.00022462444304858798,3099105000000,
-0.1189783609958676,0.007892433818328343,0.0001487151752699,3099110000000,
-0.11502404972163417,-0.012668433433234537,-0.00018415539425350674,3099115000000,
-0.08833021573501335,0.004714674059453799,-0.00014546004401257078,3099120000000,
-0.0978166815060389,-0.017937124045530217,-0.00010770507923254542,3099125000000,
-0.07912468464845122,-0.016248536291027703,-8.385405901090119e-06,3099130000000,
-0.0767095459731941,0.02083520147018464,0.00027698648978238886,3099135000000,
-0.1206723004257879,0.028071599472813704,-1.0759343775956927e-05,3099140000000,
-0.11287644703689856,-0.04049282897085617,0.00018049041735303923,3099145000000,
-0.11102685784157686,-0.028369574807322682,-0.00020187679776263785,3099150000000,
-0.09570015038920035,0.010319271949144749,-3.494827716944859e-05,3099155000000,
-0.10309632200715906,-0.013260767980065282,-1.1257473624286868e-05,3099160000000,
-0.10242580956244818,-0.026830743447497876,0.0005660217974981497,3099165000000,
-0.13423177240753564,0.003107137864208887,0.0002039081452581013,3099170000000,
-0.1575710611456706,-0.01999737178683105,-6.738652967738096e-05,3099175000000,
-0.08231338352674224,-0.016366214784270135,-0.00012485843548031418,3099180000000,
-0.12446438194505503,0.023048098809255475,-1.065665679908257e-05,3099185000000,
-0.12975646730017393,-0.003183723283178071,-0.00015892305331110737,3099190000000,
-0.08632137039818832,0.009420212147569681,2.1142319929092362e-05,3099195000000,
-0.1249794024284831,-0.012027461169904878,-5.1553638769257025e-05,3099200000000,
-0.11976818901403642,-0.01820610867546034,0.0004107111109079068,3099205000000,
-0.09689374749199237,0.003081290676145356,-2.266176734636318e-05,3099210000000,
-0.09710049997304095,-0.00832761297573259,-4.6844123575282515e-05,3099215000000,
-0.10992257443872752,-0.025531973538869084,-7.962791872625764e-05,3099220000000,
-0.051042446997832946,-0.0023974724266900517,1.2625790871343765e-05,3099225000000,
-0.1295350143896426,-0.016661751171654922,-6.114028499692977e-05,3099230000000,
-0.13770528706331925,-0.0070637570066215995,2.2953576265938507e-05,3099235000000,
-0.13967467412740583,0.008697506241820783,-8.056746856610973e-05,3099240000000,
-0.12930721907827392,0.01649550311940258,0.00022298415851669016,3099245000000,
-0.14063506560676398,0.007941269437151118,-0.0001639175813942085,3099250000000,
-0.09636553047836048,-0.0013716345696536643,0.0002460004568634769,3099255000000,
-0.13696078187582592,0.01807098200511318,0.00033861219234874334,3099260000000,
-0.13382698023394474,-0.015851665051782416,0.0002958682083037468,3099265000000,
