acc_x, acc_y, angular_z, stamp, 
-0.09297681611395898,0.019655748245909245,-2.6004131015559435e-05,2987925000000,
-0.06945438965208274,-0.030287356211230687,-0.0001603169147573827,2987930000000,
-0.05975415911096918,0.008946260172300987,-0.00018672143765812655,2987935000000,
-0.1032566402138036,-0.007485527527017113,0.00012600519549234074,2987940000000,
-0.03385533859934811,0.00851242581300307,0.0001193128072266255,2987945000000,
-0.027856494391514098,0.026561833510310214,0.00023399679077108597,2987950000000,
-0.03167200214220946,0.00029164079742370163,-0.00048648420809662427,2987955000000,
-0.06977065406849636,0.0019143714657027808,3.2519664616552546e-05,2987960000000,
-0.05184017210908645,-0.00222312773117651,-0.0001836918065616897,2987965000000,
-0.054447431241611395,0.02748561007820855,0.0001536860915891213,2987970000000,
-0.06188288172825837,0.007818550891055572,0.00014172962838803044,2987975000000,
-0.03965325542180634,-0.0028224203575604526,6.13497684490577e-05,2987980000000,
-0.03884096246236831,0.022760555439712515,0.0001049541555317139,2987985000000,
-0.0779003632658995,-0.005841120873302329,-5.0193490026366935e-05,2987990000000,
-0.0557533570982436,-0.04323810645193692,-0.00010990157103599837,2987995000000,
-0.06486708936259164,0.00927863930110691,0.00023197434619794466,2988000000000,
-0.043225728766622055,0.007228628870053735,0.0003388159984245537,2988005000000,
-0.09045715048254811,0.009180044244415176,0.00012381158451113666,2988010000000,
-0.04421553693910983,0.030894712093045333,0.00013932020092268822,2988015000000,
-0.034917697117728436,-0.011782536603941907,0.00012428156991199413,2988020000000,
-0.056806190812045326,0.00906510290660164,0.00020119191769286382,2988025000000,
-0.08201132143612917,-0.010010739802745548,-0.0001257812006466055,2988030000000,
-0.08640427551509472,0.028268678678704945,0.00010653834139390876,2988035000000,
-0.060262114472793,0.010395378520535998,-9.55101053557676e-05,2988040000000,
-0.07833701982921769,-0.045231761477224665,1.7395864557669025e-05,2988045000000,
-0.06997589315455353,-0.0002033465547139102,9.535820443172222e-05,2988050000000,
-0.026646555761640586,0.01385308773265289,1.695696371379258e-05,2988055000000,
-0.0024911411620988227,-0.020360628321472195,-0.03819553402857444,2988060000000,
0.031209238475370285,0.052805656247892005,-0.0992104624741248,2988065000000,
-0.00583271582387491,-0.0003306276540696292,-0.1929858239359344,2988070000000,
-0.018303976803504325,0.016632450134908966,-0.2629716232856959,2988075000000,
-0.028310803637083302,-0.1326836675583252,-0.35309593839066233,2988080000000,
-0.04477313888716503,0.18302221156059714,-0.4400406717309837,2988085000000,
0.010016910342430232,-0.007880338634825306,-0.5243994327197765,2988090000000,
-0.005263480704330515,-0.010548275574529075,-0.6343983898190898,2988095000000,
-0.03759689619828861,-0.08097520659913471,-0.7488955005717446,2988100000000,
-0.002087202670499633,0.11425104613768339,-0.8606489844088323,2988105000000,
-0.030376594102737547,0.006005412567710731,-0.9622584619094818,2988110000000,
-0.16729878609385168,-0.10047284548578442,-1.0471330920875044,2988115000000,
-0.0445365906410591,0.11489413189104991,-1.1123344964631716,2988120000000,
-0.027936712652257546,0.014250221653606295,-1.1670190476683586,2988125000000,
-0.07159852363711099,0.010290667584350805,-1.2332209617725491,2988130000000,
-0.007320583714001416,-0.0019291458457416626,-1.2970257053938576,2988135000000,
-0.14552336803500257,-0.07577333757798511,-1.3541496572892262,2988140000000,
-0.0030551510506821415,0.07074930235628751,-1.4001322461104362,2988145000000,
0.0009756838670433934,0.02358532060788618,-1.4339054724325533,2988150000000,
-0.1814009150405392,-0.09054053237868724,-1.4540725249817334,2988155000000,
0.06938302093157458,0.08304464113475228,-1.4802439310444377,2988160000000,
0.03560313241188992,0.007975181908780538,-1.5276398222436645,2988165000000,
-0.17722487454097843,-0.08779181151372,-1.5809472162517932,2988170000000,
0.08119754401753718,0.09941977087749124,-1.6369164118229058,2988175000000,
-0.027477093580385754,0.0029754781843202406,-1.6933262491599392,2988180000000,
-0.2764342483678005,-0.10323680824538807,-1.7443776986740474,2988185000000,
0.09292145465804308,0.09891090160907723,-1.7877618332655014,2988190000000,
-0.07781825404604087,-0.07844880179690011,-1.851023568877668,2988195000000,
-0.00778134476531603,-0.005506306006622394,-1.930186625860963,2988200000000,
0.1373023412516876,0.09902616523404008,-2.0164941326848216,2988205000000,
-0.16176072245822654,-0.11299564833799355,-2.101252447806526,2988210000000,
-0.028859711302978958,0.0009226558123066282,-2.1802978237182997,2988215000000,
0.063760086450586,0.06521277250472013,-2.2497294369710183,2988220000000,
-0.20513836805841218,-0.1378540888984616,-2.3032152951223632,2988225000000,
0.04889080071176002,-0.002375046945205789,-2.379702003899499,2988230000000,
0.04937931876742021,0.07334149635052759,-2.476648280118624,2988235000000,
-0.09415737040581083,-0.071624056599182,-2.5556303761079455,2988240000000,
-0.02805565976051324,0.004209618384239895,-2.6132353690897623,2988245000000,
-0.04767206617471806,0.004922686882372997,-2.6754794910829873,2988250000000,
-0.05084525598043037,-0.015478011931674567,-2.723606288502623,2988255000000,
-0.030553302650422942,-0.0350490507113438,-2.7610343312709427,2988260000000,
-0.01698858103236639,0.04996763490513227,-2.8198715428898926,2988265000000,
-0.01786252897109818,-0.03219694705102245,-2.883880022981139,2988270000000,
-0.041415170486178904,0.006432605749191661,-2.9477163759230196,2988275000000,
-0.05147310762303831,0.0006177568516062791,-3.0073652273293896,2988280000000,
-0.037007285128699295,-0.007343635105602044,-3.0595189446374955,2988285000000,
-0.0602436149825406,-0.014575247550405512,-3.1005376255369588,2988290000000,
-0.06217129124576009,-0.006552422607952853,-3.1422575044496086,2988295000000,
-0.0015931880938959602,0.007459731729323788,-3.2060674872651815,2988300000000,
0.002276633055537356,0.0013531890945067612,-3.2767564088586707,2988305000000,
-0.013545522587025,0.0013771179542191245,-3.3491289782511995,2988310000000,
-0.042499398539016256,-0.01619067933844538,-3.430785279983844,2988315000000,
-0.03678464900192061,-0.026654966666575047,-3.4787457387791862,2988320000000,
-0.03492337359631158,-0.004663941462831025,-3.5287119021162567,2988325000000,
0.005144458220484385,0.015894125752176483,-3.5852458091921195,2988330000000,
0.0012738873289278203,0.01727082053181949,-3.659561749544187,2988335000000,
-0.011172014677220628,-0.028353081784352988,-3.7378336564144266,2988340000000,
-0.03976111051140786,-0.01813274659930177,-3.8146833728064524,2988345000000,
-0.0406016922672934,-0.06504374244098596,-3.884169116773663,2988350000000,
-0.036647798582617325,-0.035908691240027636,-3.942780192128217,2988355000000,
-0.05595685243024591,-0.0194711633335878,-3.987908816048005,2988360000000,
0.020697799976766514,0.01328352218026537,-4.046700132250704,2988365000000,
-0.034904285945251634,-0.008970480904108685,-4.116781129905738,2988370000000,
-0.023655239413839783,-0.004829333245658991,-4.188996835191106,2988375000000,
-0.027518576957593396,-0.042407513580659306,-4.257324997999258,2988380000000,
-0.047614444372148686,-0.02319210888208957,-4.318255464161438,2988385000000,
-0.054365241535256445,-0.04394741792219435,-4.368554884027109,2988390000000,
-0.05425731235636013,-0.03566308984771225,-4.405399902268184,2988395000000,
-0.01444014338925986,0.0012943887981949464,-4.4663022415787195,2988400000000,
-0.023019237291471567,0.03501113943262058,-4.534214660102517,2988405000000,
-0.017075879527970624,-0.013214541593310992,-4.603964200711672,2988410000000,
-0.018455104332070142,-0.041634477725421164,-4.671204283536817,2988415000000,
-0.026576481989657418,-0.0023783153121379116,-4.731314996786559,2988420000000,
-0.03939305513724282,-0.04054358172269381,-4.780916373904348,2988425000000,
0.007975102742918698,-0.02879194114502615,-4.823235199736307,2988430000000,
-0.059305634016790315,0.020569337302118067,-4.889423316599747,2988435000000,
-0.030387439829364364,-0.00976809283616336,-4.961926337800881,2988440000000,
-0.019573617749026117,-0.014694347816470681,-5.035807709106306,2988445000000,
-0.01805215525027819,0.041880822484380735,-5.105387438746439,2988450000000,
-0.04046311329168974,-0.1569431734438612,-5.1664705237492,2988455000000,
-0.021579975153937333,-0.03984972166023385,-5.216374597181905,2988460000000,
-0.05398913983358536,0.08458165431226139,-5.265029342702042,2988465000000,
0.007531585651374122,-0.12276255334340506,-5.333451846489679,2988470000000,
-0.012459517248183203,-0.008995379270622595,-5.406567954661087,2988475000000,
-0.054525364000267654,0.058096320741547774,-5.493118338919018,2988480000000,
0.01513816471184012,-0.15649629005399718,-5.5454297044046035,2988485000000,
-0.005635419674512497,-0.03324618587217573,-5.60288824578308,2988490000000,
-0.06918489469864626,0.024629658723869994,-5.648119250473429,2988495000000,
0.041903563313238607,-0.12422132381216669,-5.698151822687006,2988500000000,
-0.08817491718805981,0.07599126811275952,-5.7657374018526015,2988505000000,
-0.0027035129302117843,-0.028736155649076573,-5.836962037724378,2988510000000,
0.08121935372056964,-0.17218223041488748,-5.905652682154622,2988515000000,
-0.09466325991356313,0.018230477845066703,-5.969505039630243,2988520000000,
0.012070762797230218,-0.11137852249345641,-6.023214553562537,2988525000000,
-0.04197377794910054,0.04077320377401268,-6.064168373006005,2988530000000,
6.862194928575051,-0.07265532281098296,-6.091963702372248,2988535000000,
-0.08776691280099516,-0.2588729824257456,-6.10406621432149,2988540000000,
-0.07237915185819951,-0.2749444365755848,-6.10257698733891,2988545000000,
-0.155761905343536,-0.3568825873389944,-6.087348570350193,2988550000000,
-0.007021735939063653,-0.16993400468666614,-6.055348860064439,2988555000000,
-0.09333028776397019,-0.2553996952395132,-6.027571683744861,2988560000000,
-0.14917964635740752,-0.3441199706398925,-5.987190540896629,2988565000000,
8.73811140331072,-0.06890065706622289,-5.953068801918437,2988570000000,
-0.17604084229025718,-0.44546396324834664,-5.902505204587479,2988575000000,
-0.1606073253179273,-0.5740409294098211,-5.863201650549485,2988580000000,
-0.027826965526302816,-0.3631123269133096,-5.823770864449453,2988585000000,
-0.07242336881939407,-0.45578343862601317,-5.80352583423217,2988590000000,
-0.11787289533672993,-0.570589902326697,-5.785155256365374,2988595000000,
5.674777240694181,-0.30612984140068505,-5.77657672940291,2988600000000,
1.1735692923361192,-0.7141937953323347,-5.776057741467688,2988605000000,
-0.13884389892359766,-0.6532825881026125,-5.7833587790940655,2988610000000,
-0.01271445416118722,-0.5273535571637981,-5.798268376605821,2988615000000,
-0.09178980230811468,-0.7541124219194875,-5.818544500511373,2988620000000,
-0.05689910527665142,-0.6463678146939612,-5.84185569847751,2988625000000,
-0.02956324765672594,-0.6656320891312186,-5.867105189606775,2988630000000,
6.752694701197968,-0.6076642988127035,-5.892903389011603,2988635000000,
0.06738096957540929,-0.9031418395446115,-5.91620746833005,2988640000000,
-0.10350133967613961,-0.8709485827097664,-5.937062587187995,2988645000000,
-0.02319443500920804,-0.874383049935081,-5.9529745876798765,2988650000000,
-0.029674053024945402,-0.8550084380882962,-5.964437508945202,2988655000000,
-0.005883656113791696,-0.8552933845564732,-5.970316492492575,2988660000000,
-0.03442570089382114,-0.8831337579399202,-5.971485841516254,2988665000000,
6.9421207538511265,-0.8085036364958438,-5.966892598096824,2988670000000,
-0.130120893272602,-1.1118140382760278,-5.958827578242955,2988675000000,
-0.07342197149618421,-1.0975541654072873,-5.946933328495831,2988680000000,
-0.033473499820368915,-1.0768192755824637,-5.9361408198865036,2988685000000,
-0.02140218991044453,-1.0598227399244093,-5.91783727906987,2988690000000,
-0.04945040734720957,-1.0913850851382478,-5.90310086299381,2988695000000,
-0.0325044313778234,-1.0767745625802265,-5.888730655976831,2988700000000,
6.972535430079375,-1.0118435858869204,-5.876560678934751,2988705000000,
-0.10944880771660788,-1.2864502405282876,-5.8669183110696235,2988710000000,
-0.08854021557806432,-1.2860808883617123,-5.860537528928908,2988715000000,
-0.14423958981514803,-1.1778692973747478,-5.856360812029886,2988720000000,
-0.13621038072560357,-1.1994377343497025,-5.85678464983647,2988725000000,
0.04786675592730881,-1.303606861430476,-5.860105457762208,2988730000000,
-0.010564370322794071,-1.262028832581912,-5.864837746538711,2988735000000,
6.967774039769577,-1.2313999746062065,-5.8713207751962555,2988740000000,
-0.14549859972609036,-1.4887908900259206,-5.879712747689338,2988745000000,
-0.0205047993239111,-1.450308863816963,-5.888286858510448,2988750000000,
-0.00419761110812431,-1.486423631879859,-5.896390078501374,2988755000000,
-0.025326099652445457,-1.4583942720328067,-5.904472837485614,2988760000000,
-0.01357339868788427,-1.4909989022176802,-5.910810557525206,2988765000000,
5.669156107073591,-1.4337439764830762,-5.915883184445092,2988770000000,
1.2402734312771433,-1.6456069530088944,-5.9183438938490545,2988775000000,
-0.0720917851719444,-1.690882159135053,-5.920317133463854,2988780000000,
-0.018549533559130027,-1.6958742939251332,-5.91972721476097,2988785000000,
-0.025663348419788234,-1.719376455960214,-5.918029075896098,2988790000000,
-0.010835012571002224,-1.695037451484062,-5.914545516833911,2988795000000,
0.018187972691593404,-1.670079408581019,-5.9099539948282676,2988800000000,
6.817980669615524,-1.6318006484878262,-5.905563280983605,2988805000000,
0.08981418965849945,-1.862084896560045,-5.89956610317611,2988810000000,
-0.0288705450791466,-1.876344012475032,-5.893530450134262,2988815000000,
0.005534227717575217,-1.8736180716262139,-5.889011641863659,2988820000000,
0.03499130847548862,-1.853215330675351,-5.885683787616173,2988825000000,
0.05668056110738978,-1.879057342057888,-5.882920809830068,2988830000000,
0.018270261731850146,-1.8620227283349569,-5.881082170784993,2988835000000,
7.025060299030514,-1.8579787728290484,-5.879809501471738,2988840000000,
-0.11193933034402742,-2.078362570245464,-5.880461198981207,2988845000000,
-0.03470807355317777,-2.0751501120175186,-5.881702556576191,2988850000000,
0.020482500087742855,-2.0757478628415105,-5.884080740501244,2988855000000,
0.03220317859084448,-2.0801207771100754,-5.887096016889978,2988860000000,
0.02625666677211533,-2.095779719643659,-5.890128693592205,2988865000000,
0.0413660721369417,-2.105113188964725,-5.893444851182697,2988870000000,
7.003115310194585,-2.0299583332697493,-5.8963924328246575,2988875000000,
-0.08570446920990824,-2.307749635292882,-5.899548854396091,2988880000000,
-0.0011538694597856558,-2.3028062655813653,-5.902090444472046,2988885000000,
0.02967183940362871,-2.28304688738343,-5.903686628818203,2988890000000,
0.06915492354394298,-2.2713156963594607,-5.904399548318969,2988895000000,
0.056000141172118885,-2.3021885986705795,-5.904413408536242,2988900000000,
0.04167638007267294,-2.2761377228437176,-5.9046262020081475,2988905000000,
6.978225234337984,-2.277677823047913,-5.903112521236173,2988910000000,
-0.06253561321622272,-2.5063428952932125,-5.901304406278603,2988915000000,
0.020733978276630927,-2.501755079896017,-5.899219933991917,2988920000000,
0.048935824710121326,-2.4830072698743813,-5.897021171307434,2988925000000,
0.06040628590077732,-2.5148148120160494,-5.894337889816182,2988930000000,
0.11125212030562229,-2.488597411171846,-5.892027727924705,2988935000000,
7.171072082364969,-2.4060337389763133,-5.890225067920012,2988940000000,
1.0289660952185455,-2.5976602131484667,-5.888956849837624,2988945000000,
-0.12611018323291867,-2.5725122023405707,-5.8891264804241725,2988950000000,
0.1448705033052394,-2.7385183413011234,-5.889667300005548,2988955000000,
0.08100557149689776,-2.687161073012873,-5.890577034208035,2988960000000,
0.07953117359873221,-2.6706053760018,-5.891965738875113,2988965000000,
0.04104942395053035,-2.690799945769318,-5.893097793026281,2988970000000,
6.882586580785424,-2.610181072617614,-5.894684159940556,2988975000000,
0.19025150707419064,-2.8986633819722254,-5.896450420991888,2988980000000,
0.05023081814101474,-2.9136048413487443,-5.897413483124077,2988985000000,
0.05675526399501961,-2.9023850376402374,-5.898427557235319,2988990000000,
0.07621367804958809,-2.887564670771503,-5.899192359904857,2988995000000,
0.06995369234421356,-2.8799380921489623,-5.8996317323389675,2989000000000,
0.07311620239320488,-2.8899265969514314,-5.899005170422651,2989005000000,
7.09514777489179,-2.8373092078449456,-5.898259886385065,2989010000000,
0.007239709665484035,-3.122784254658177,-5.897261314952221,2989015000000,
0.09984956245757381,-3.124997630453773,-5.89501872841757,2989020000000,
0.07975004087109581,-3.0792363029538783,-5.894300150026158,2989025000000,
0.0798870969291578,-3.086686139983556,-5.892144276339672,2989030000000,
0.13155704638621457,-3.0832197133701293,-5.890389109050654,2989035000000,
0.09408754886458713,-3.0751892560005056,-5.888446311562832,2989040000000,
7.104530611303704,-3.0507312043096317,-5.886724811569417,2989045000000,
0.02015423547500041,-3.2680421964840667,-5.885270043553697,2989050000000,
0.09446349665115351,-3.272621908671753,-5.8848457019892875,2989055000000,
0.12561643441704576,-3.264316087976363,-5.884344480858162,2989060000000,
0.15468452614712574,-3.278384947930787,-5.885318815625049,2989065000000,
0.1445146194048844,-3.28799536784481,-5.886034992995989,2989070000000,
0.13878710853648255,-3.2660439431414674,-5.886860167204259,2989075000000,
7.137441246244715,-3.1690816247006204,-5.888194367671522,2989080000000,
0.03766708037283842,-3.4507694111651284,-5.890064151083981,2989085000000,
0.1422160321843523,-3.472091464485256,-5.891809484185576,2989090000000,
0.12476666620142733,-3.446284850129762,-5.893320559797724,2989095000000,
0.18226268583102165,-3.4521993133366724,-5.894543116095215,2989100000000,
0.15751488164974878,-3.4586230031046608,-5.895113991649579,2989105000000,
5.836777090779055,-3.3937462504580473,-5.895846117493114,2989110000000,
1.4116821266743595,-3.6421142143915453,-5.8958930297539665,2989115000000,
0.12116169195230625,-3.681954180525562,-5.895240323506033,2989120000000,
0.19224994271768345,-3.6247446429889205,-5.893946397437373,2989125000000,
0.16477675921068838,-3.5837608702651784,-5.893387440267318,2989130000000,
0.1652095767038649,-3.6253547647100657,-5.891824265627667,2989135000000,
0.21125288012508714,-3.610181069988636,-5.890161603070443,2989140000000,
6.980782994258431,-3.523597517903441,-5.888566544473588,2989145000000,
0.2241467478250471,-3.693260208950534,-5.8871349675841005,2989150000000,
0.058542603928756175,-3.6849820131661426,-5.886758969320352,2989155000000,
0.1457258876917926,-3.7544168140212357,-5.886064442833814,2989160000000,
0.17863854944682045,-3.8002411611634974,-5.88595565968835,2989165000000,
0.18770955382570623,-3.81973505396637,-5.886800432447098,2989170000000,
0.2183597518423606,-3.7983332095271374,-5.887563055648459,2989175000000,
7.229721406673496,-3.8743690420652315,-5.888991188078202,2989180000000,
0.28832164885251377,-4.3199414321053995,-5.890346606224642,2989185000000,
0.4257948313410773,-4.333800298752839,-5.892079001793688,2989190000000,
0.6043834839761921,-4.481568769744371,-5.894797402344391,2989195000000,
0.8000895331754239,-4.675782016500585,-5.89700087698017,2989200000000,
0.5929168871796447,-4.442704283893279,-5.898391668181663,2989205000000,
0.3569339429829957,-4.175090078999438,-5.89904675818815,2989210000000,
8.952038222236183,-3.9862216203121634,-5.8988305410518365,2989215000000,
0.20574204898238158,-4.31884269010961,-5.897848504472727,2989220000000,
0.24188195109018168,-4.295047180569069,-5.896347436196694,2989225000000,
0.2534471548537433,-4.253313779274719,-5.894140140455462,2989230000000,
0.26907906443802704,-4.257918871662444,-5.891976438829092,2989235000000,
0.2635097302717267,-4.242392861372444,-5.88934780305424,2989240000000,
0.2650083023261765,-4.230276637492036,-5.8877464874054715,2989245000000,
7.163280409097057,-4.185338140673943,-5.8860839802998735,2989250000000,
0.13145737826948733,-4.447919121133469,-5.884091129095315,2989255000000,
0.23891231138113755,-4.471176296692411,-5.883628029478567,2989260000000,
0.29817110824183307,-4.5042740219423925,-5.883866269978817,2989265000000,
-18.254597521962854,-6.771529073684675,-5.874060370528902,2989270000000,
-31.058574619006134,-12.686277015753042,-5.862195709406085,2989275000000,
-21.57688104986675,-9.771772416943485,-5.854047131726699,2989280000000,
-22.261466011131258,-10.646028030778735,-5.845761113046293,2989285000000,
-14.064587009480972,-7.1838909517309135,-5.840561366008459,2989290000000,
-3.392154302293285,-1.7224444946448152,-5.839642292206555,2989295000000,
-0.34949591229692284,-0.04708833879554293,-5.8397063638784825,2989300000000,
-0.3262760240375809,-0.00045431507865234533,-5.8395379750976115,2989305000000,
-0.33264976899730436,-0.03562925385016606,-5.839148712450391,2989310000000,
-0.35187422635686033,-0.02348921124511078,-5.838549594823201,2989315000000,
-0.31614877830202076,-0.001735727872544536,-5.8376212508239975,2989320000000,
-0.3360146146665035,-0.02788690419126325,-5.836642283508581,2989325000000,
-0.32572418067475595,-0.005604322876204236,-5.83641585449211,2989330000000,
-0.3731845393422729,-0.024342548217795044,-5.835676178033324,2989335000000,
-3.5474372369609224,-3.187381755152066,-5.834094567147515,2989340000000,
124.29625326738308,23.394573612301002,-5.783388506112091,2989345000000,
8.063771825909736,-3.3084943659044432,-5.785415391188807,2989350000000,
-0.9127415677645531,-4.009527623727648,-5.7922478298303215,2989355000000,
1.19836450039079,-4.90553099642199,-5.79141399386348,2989360000000,
0.6867299733956056,-4.823051091002719,-5.788112238730743,2989365000000,
0.4475801739405569,-4.9175032441079125,-5.782998980992544,2989371000000,
0.39987806554774535,-4.9455125007370135,-5.780197438243145,2989376000000,
0.30603565354874,-4.9635320832741705,-5.77761788418093,2989381000000,
7.31714155780821,-4.918640336079997,-5.774758815732516,2989386000000,
0.18901595033138083,-5.1453788362603445,-5.773013053163194,2989391000000,
0.28375120089868866,-5.17352722597615,-5.771685570737819,2989396000000,
0.36104141253093236,-5.13301952698561,-5.771301818344763,2989401000000,
0.35279756914013816,-5.0120062229759315,-5.771308734993666,2989406000000,
0.4052874661655464,-5.099081131610443,-5.77247247691073,2989411000000,
4.979147608749914,-5.113041891429815,-5.775127302695637,2989416000000,
3.132864716740665,-4.4004152559308585,-5.789086103496357,2989421000000,
0.23325573055787108,-5.909256712316304,-5.8067839341692,2989426000000,
0.8050543191060016,-6.00672493194123,-5.826942477665872,2989431000000,
1.1366817813103018,-6.263593826172062,-5.838990686721535,2989436000000,
-1.2336030420256376,-5.3717744601128885,-5.854729612185763,2989441000000,
0.1463326667629746,-6.583355060079684,-5.85164000818051,2989446000000,
8.355348208753963,-7.214442739770031,-5.8421631362149435,2989451000000,
1.968262563069862,-6.639958524493335,-5.837639602858984,2989456000000,
0.6339414346841334,-5.76683765143333,-5.831588094441013,2989461000000,
0.5558117255518609,-5.495514538982921,-5.825813955097414,2989466000000,
0.4823473447188204,-5.359953034776781,-5.821601287043051,2989471000000,
0.5339498430469508,-5.361186844519385,-5.815243817053076,2989476000000,
0.49960234364961575,-5.318032883086066,-5.808198676070682,2989481000000,
1.5913531752858592,-5.322027933952685,-5.803444476460416,2989486000000,
0.4983990429329768,-5.330252847628648,-5.797307642474496,2989491000000,
0.4292390056297767,-5.306837295631688,-5.791952778168023,2989496000000,
0.4396342546200123,-5.32039538416172,-5.786631763413813,2989501000000,
0.49972731945441895,-5.300238427674394,-5.78192202236365,2989506000000,
0.48533339964956485,-5.244523739030858,-5.775015013296877,2989511000000,
0.5146657392469265,-5.265087632373699,-5.770974054995538,2989516000000,
7.535812096680396,-5.182680133475855,-5.762133196268128,2989521000000,
0.15012015248038166,-5.429650036521421,-5.756339174901225,2989526000000,
0.20178574030310925,-5.362230156868598,-5.75020467427355,2989531000000,
0.400363699187965,-5.319534344681915,-5.743498449725075,2989536000000,
0.4252275602170348,-5.318166091288226,-5.736298007309718,2989541000000,
0.43347093322994673,-5.2509469741107715,-5.729390990969712,2989546000000,
0.45094731257200155,-5.232568620652395,-5.7223181070531,2989551000000,
0.4790365833019147,-5.169605209946406,-5.715102395475682,2989556000000,
0.5134250658496449,-5.194851484027342,-5.708495399529984,2989561000000,
5.8202622918519955,-7.2065329729472465,-5.720452686255134,2989566000000,
-6.028419530508823,-3.223412646670705,-5.727753264988577,2989571000000,
5.979230206003682,-7.393828805780835,-5.72586151012422,2989576000000,
1.088744826725237,-5.952920420637555,-5.745111020513973,2989581000000,
0.4166026241077549,-5.45419706149899,-5.7650224629960025,2989586000000,
0.4906637227775776,-5.686951365855776,-5.784442414388167,2989591000000,
0.4578012223294357,-5.3671025405631365,-5.803141641160191,2989596000000,
0.33698352140744775,-5.388512019582324,-5.822647222127644,2989601000000,
1.0379173902639738,-5.574552152570361,-5.841060802107846,2989606000000,
2.5573179583083823,-5.089108903187255,-5.855132466477885,2989611000000,
1.1320039489345857,-5.3299609202451155,-5.866535342224155,2989616000000,
-0.7545609414823123,-6.282235416192053,-5.866315959206288,2989621000000,
2.4763988147086446,-6.545701558236213,-5.8403170574892505,2989626000000,
-2.976218888679037,-10.074210708775604,-5.811205516264194,2989631000000,
-1.0442404600739024,-7.69275846367873,-5.8025950779111835,2989636000000,
0.028376960456774805,-6.425894332615136,-5.79725987921522,2989641000000,
0.34661865747859716,-5.99877853227231,-5.793002212464262,2989646000000,
2.958647456648347,-5.826229971970931,-5.795235130726085,2989651000000,
-1.2531567799999495,-5.857656289524304,-5.796133208689688,2989656000000,
0.3780798798306888,-5.925709359842324,-5.7947527912488,2989661000000,
0.49063213907552294,-5.8760383666992615,-5.792845052469987,2989666000000,
0.5014327438164771,-5.859683561800675,-5.790762796653563,2989671000000,
0.394231747298726,-5.341962414202818,-5.7949678062967775,2989676000000,
0.7064112491098666,-6.11896510423399,-5.791823066955841,2989681000000,
0.5820318984053251,-5.9889245375891385,-5.789562222330422,2989686000000,
2.4869573434205505,-5.861634860180849,-5.788860005858323,2989691000000,
-1.3004593290563349,-5.9570518511581705,-5.793145248809915,2989696000000,
0.47019154158098964,-5.619266136151821,-5.792658040651688,2989701000000,
1.607578297946374,-5.3317256959471875,-5.789195871778965,2989706000000,
0.7948896888084458,-6.340059868406776,-5.789753706045353,2989711000000,
3.3768032377155364,-5.415317970538101,-5.791176562367758,2989716000000,
4.746604234100243,-4.9523277360542055,-5.793155117132112,2989721000000,
-4.398040486135568,-5.461769964669775,-5.791328382304199,2989726000000,
-2.8581901848540405,-7.741269217373901,-5.8013553210971045,2989731000000,
1.194127505698506,-5.41191631657766,-5.810229125937669,2989736000000,
1.3809516510984208,-7.351050352378908,-5.810081726789445,2989741000000,
1.053540749324925,-7.2026433685752105,-5.809334120645388,2989746000000,
1.139111011332179,-6.340889394187013,-5.808531749982669,2989751000000,
1.7848231293394414,-5.642760372045203,-5.8073158129705424,2989756000000,
1.7161777161978087,-5.209243366127268,-5.806215593585252,2989761000000,
-0.057941957732550536,-3.874113919104606,-5.80436054573901,2989766000000,
-1.9151993428378782,-4.024003272841606,-5.801372736917874,2989771000000,
-2.9483469326800646,-8.066638487030266,-5.799437948302423,2989776000000,
-0.9748861512023868,-7.062531115454722,-5.797881162207239,2989781000000,
0.13267044270536335,-6.270717531632433,-5.7971451131940075,2989786000000,
0.480270329225511,-5.973301433818175,-5.796368565239764,2989791000000,
0.6351459134026436,-5.853614639022859,-5.796143967224493,2989796000000,
0.7048841908026284,-5.806459391885403,-5.7949079280118,2989801000000,
0.6698443829050262,-5.796185507676968,-5.794444872188905,2989806000000,
0.7108014405205761,-5.787676599672867,-5.793311045086737,2989811000000,
0.720919390793089,-5.80628241612745,-5.791644248192597,2989816000000,
0.6971949996046867,-5.776651703051891,-5.790177836274218,2989821000000,
-4.260052473230033,-5.872128381904167,-5.785514482103078,2989826000000,
0.4310240295621666,-5.64660588885382,-5.783352085921136,2989831000000,
0.738544091810697,-5.649334554807562,-5.781168437598011,2989836000000,
0.7332712621019573,-5.668957354424003,-5.77912629726211,2989841000000,
0.7273550957743835,-5.658284408239821,-5.7774898858808745,2989846000000,
0.753817109617027,-5.638103059793654,-5.775667957459845,2989851000000,
0.6897239485083585,-5.630610759424996,-5.774337117943457,2989856000000,
-4.047553162948582,-5.589296961322695,-5.771186493803127,2989861000000,
-6.765872857488074,-5.491363501381637,-5.76976840520379,2989866000000,
11.604542269337625,-3.8612470190722012,-5.775452035799465,2989871000000,
2.952462195772593,-4.562539523551697,-5.77458522676527,2989876000000,
-4.671516405458497,-7.244386453938699,-5.770475347502266,2989881000000,
-6.729754839558233,-6.156607936265026,-5.767285078897675,2989886000000,
8.140965162579665,-5.491048572148063,-5.770202233011151,2989891000000,
6.155276134394288,-4.204657677874905,-5.769329726490497,2989896000000,
-9.599795741721326,-6.49807227328756,-5.762408453538547,2989901000000,
-1.977332887069005,-5.87920981656348,-5.760394971442661,2989906000000,
9.827978819830907,-3.919520199687541,-5.763449282199203,2989911000000,
3.5537807434223048,-5.95359457941234,-5.761240332280007,2989916000000,
-11.317593051833644,-6.5195255046930045,-5.75489398168446,2989921000000,
-2.1625376239145413,-5.765813438981985,-5.753627970413299,2989926000000,
-1.9335197030396676,-5.298257267143942,-5.751703701934556,2989931000000,
13.12206944328261,-2.9101908787230215,-5.754958735715064,2989936000000,
-8.722970343683427,-6.669783814080495,-5.748991633150969,2989941000000,
5.1407753516252175,-4.1065946365577135,-5.749618308587562,2989946000000,
4.741885936505711,-1.4054293628343641,-5.747018876587257,2989951000000,
0.7652341422898974,-8.300284280078229,-5.744077995740011,2989956000000,
-2.551919317101126,-7.041249676963238,-5.74058892364513,2989961000000,
19.009335615997642,-4.344487642552704,-5.69448775592901,2989966000000,
10.500417195086985,-6.699622100265288,-5.680663123615198,2989971000000,
-1.8431831451323548,-6.697416578160718,-5.677454056855279,2989976000000,
5.535485113388743,-5.1585211247744285,-5.670147560516126,2989981000000,
2.960738813933764,-5.047452380005921,-5.663034564144093,2989986000000,
1.7259923438176896,-6.027465146560495,-5.6570367949594615,2989991000000,
-1.4806821344795273,-1.3836019343067336,-5.655507854357026,2989996000000,
3.2839499177105553,-8.962840921979678,-5.651295204836391,2990001000000,
3.6256598929780592,-13.68879195233673,-5.64499517453806,2990006000000,
-3.7839108866824707,-2.795475690333386,-5.641920602914285,2990011000000,
3.9050261766481422,-2.9540751895760176,-5.63796746138562,2990016000000,
-2.709240117230652,-3.413819338716948,-5.636724409605227,2990021000000,
3.0795170974381194,-12.481763808641047,-5.631395245239097,2990026000000,
3.368576604825653,-4.9430829016429625,-5.624069920942485,2990031000000,
4.602124504350876,-4.604273236472754,-5.618169149405534,2990036000000,
-3.841507305457696,-2.781750881923036,-5.6160578999938515,2990041000000,
3.8928587031697917,-8.737493880436348,-5.610232594749417,2990046000000,
-0.8536000268658168,-8.748698696671253,-5.603773580074731,2990051000000,
2.7728855167849726,-4.901701224098457,-5.597063403220786,2990056000000,
-0.8796866909649241,-4.210876615113629,-5.59256529469941,2990061000000,
1.0972046877027128,-6.780846153026395,-5.58872434510622,2990066000000,
-1.2390652356610719,-7.1600213700188435,-5.58377362055281,2990071000000,
3.3206765025538014,-6.731589812364798,-5.5763992701657505,2990076000000,
1.5412314572650965,-4.932346666874452,-5.572088836132361,2990081000000,
-2.6667243316181266,-4.923057635991661,-5.569308395259404,2990086000000,
1.6176009396850126,-8.103664419373464,-5.562462682279276,2990091000000,
3.7111030643998606,-6.174090071578203,-5.5553022607049085,2990096000000,
-4.395209880216832,-3.6321405045826163,-5.553058144932437,2990101000000,
1.1065827865512747,-8.399194348852564,-5.546935026939459,2990106000000,
1.9649101871319867,-6.248299708674649,-5.53819594740326,2990111000000,
-2.006271327125649,-4.406365376928192,-5.532753889372486,2990116000000,
-6.870417274039694,-4.279863450698196,-5.530467046070321,2990121000000,
-7.657880049867463,-7.383252320179557,-5.491662706218153,2990126000000,
-8.942387353815402,-6.061011461618847,-5.485454577662546,2990131000000,
-5.57612858085597,-4.152348892038006,-5.482622254721749,2990136000000,
2.9123872318251562,-5.093935979634279,-5.483797341040518,2990141000000,
11.371998910394355,-5.404155054485585,-5.486448726395642,2990146000000,
-4.506184351908859,-6.871793082431574,-5.481508838843073,2990151000000,
-12.80471681966197,-5.37295420641239,-5.476590041506442,2990156000000,
-3.1656249726908903,-5.383892920539995,-5.47618657077481,2990161000000,
27.51111265501104,-0.2587789851922413,-5.488168618039558,2990166000000,
-4.22063714230584,-8.004282161227794,-5.483845235057656,2990171000000,
-12.936240968320396,-6.681193390429709,-5.4768403394869996,2990176000000,
-3.305006049260476,-5.682979827206226,-5.475189618131254,2990181000000,
-0.40572103020490946,-5.172243280227323,-5.475280602493774,2990186000000,
1.03575611305265,-4.8044526250315025,-5.475199614469082,2990191000000,
14.979480953085085,-2.0923070301405367,-5.478757484561797,2990196000000,
-7.773031011317385,-6.812277254716708,-5.472100865922998,2990201000000,
-3.793192298054786,-5.899421410903746,-5.46936742097963,2990206000000,
0.3682490541009745,-5.145493638604461,-5.468744429700009,2990211000000,
0.8263741221218897,-4.892866164899361,-5.4680833423380335,2990216000000,
12.863679595320923,-2.8060882789243595,-5.470065126698738,2990221000000,
-8.463450169160941,-6.354835958045485,-5.463826313961829,2990226000000,
-1.545672206274464,-5.575329462442002,-5.46232700673548,2990231000000,
-2.796015094544238,-5.067752294102877,-5.460449170893051,2990236000000,
11.015118086324254,-4.030120288495692,-5.462727422594764,2990241000000,
2.6710876200758134,-4.642292235714695,-5.459961334987913,2990246000000,
-10.380507527223836,-5.91635197969151,-5.453144685580122,2990251000000,
-0.06261008614658613,-4.954022551696943,-5.4513082389375525,2990256000000,
0.18225528826132253,-3.640020124484518,-5.4504335669238975,2990261000000,
13.596387458629955,-4.6430876831234125,-5.456750138089361,2990266000000,
-7.000472546649973,-4.615738597228449,-5.454335500361522,2990271000000,
-3.6490424618274835,-4.6709933546357485,-5.455075719355966,2990276000000,
0.366483991165817,-4.751915194354353,-5.45781508645181,2990281000000,
12.681470912680034,-4.940177368293385,-5.465848243486037,2990286000000,
2.7043651678340916,-5.427701018947487,-5.4662129259727275,2990291000000,
-11.616978112453928,-4.64242308582824,-5.463282405781587,2990296000000,
-0.3680890479585798,-4.88949945688138,-5.466451781915675,2990301000000,
7.3220470267068745,-5.190752211005994,-5.474825944420551,2990306000000,
8.807167339309958,-3.891181733613146,-5.4781794016410075,2990311000000,
-8.211920768942045,-5.4273159416662375,-5.475265582715857,2990316000000,
-2.6659722133920534,-5.105069358980873,-5.476832428607969,2990321000000,
0.24383549798265575,-4.9588435603457794,-5.480699076299818,2990326000000,
8.696376777153281,-5.1787824004723015,-5.487699230627831,2990331000000,
3.7389393426669746,-4.217363975789956,-5.489235364340357,2990336000000,
-10.060929003170202,-5.35986907745931,-5.4852226780817634,2990341000000,
-2.124573032378265,-5.089088918217013,-5.48650149342609,2990346000000,
0.44845651064986464,-4.829581709385275,-5.488754918361231,2990351000000,
13.325413842917243,-5.095634129720768,-5.495074251392093,2990356000000,
-3.5722737856854,-4.969184760480861,-5.492553484826537,2990361000000,
-6.4136431554068976,-4.8923071809362275,-5.4912505389533415,2990366000000,
0.7653289392404785,-4.742995076405942,-5.493878664199046,2990371000000,
12.070172496979504,-4.920197074581593,-5.500414415866961,2990376000000,
3.0485219257608267,-5.120271710650152,-5.500535259613611,2990381000000,
-10.552256309479933,-4.966701567712358,-5.49657187878375,2990386000000,
-0.8644820044617062,-4.936109471102942,-5.498322033786804,2990391000000,
0.7307137458923934,-4.7431642733429875,-5.501203721167243,2990396000000,
13.271519156420661,-4.821048064187481,-5.5072179345908285,2990401000000,
1.7951791053313786,-5.193976727311514,-5.505794518307295,2990406000000,
-11.212655236673045,-5.170412345249007,-5.501473055329328,2990411000000,
-0.17706307495796578,-4.841420078732891,-5.501917093238886,2990416000000,
0.7904282923311612,-4.758152822278455,-5.503322482648199,2990422000000,
14.274028398425235,-2.8437838303430016,-5.50651487238698,2990427000000,
-7.3737426437892335,-6.281130973398437,-5.500527416858723,2990432000000,
-5.066317256407881,-5.433104084585926,-5.496915196508438,2990437000000,
-0.24896920097532046,-4.915872768790595,-5.4969839112178125,2990442000000,
8.521762214366145,-4.577119616016107,-5.500102729092944,2990447000000,
6.262399829930641,-3.497694252996766,-5.499408276561141,2990452000000,
-10.310989072224741,-6.052273355412578,-5.4934683581969965,2990457000000,
-0.7092810549700029,-5.19935449227661,-5.493572150058826,2990462000000,
0.6741588089933864,-4.755880185321569,-5.494307515524049,2990467000000,
13.959439171348231,-2.3096694081634768,-5.498342061524158,2990472000000,
-6.700556396934333,-6.4552830763164755,-5.493475152300411,2990477000000,
-3.3787167920707963,-5.6240610574835035,-5.492145397272465,2990482000000,
0.49922272109267646,-4.973433371518148,-5.492490040567285,2990487000000,
11.356581590338832,-2.8486322735014724,-5.4961338160545505,2990492000000,
3.226837589468873,-5.628204516092674,-5.492983810215285,2990497000000,
-10.585143341082636,-5.935847228984485,-5.486844756364836,2990502000000,
-0.003952963737191452,-5.14728159117419,-5.485714701322577,2990507000000,
0.795621413860733,-4.7288183974020805,-5.484583466431106,2990512000000,
11.821014287783722,-0.33536418218101616,-5.4858134143553725,2990517000000,
-5.788422486872519,-7.518492095920309,-5.479465656856514,2990522000000,
-2.7590107898994756,-6.145309434590701,-5.476683650326724,2990527000000,
0.47114623196003735,-4.696389085397644,-5.47543063073517,2990532000000,
-0.5677583814053276,-1.8844107703560007,-5.473402279491756,2990537000000,
11.21798657644491,-5.811323820025813,-5.474408960967469,2990542000000,
-8.972399396982501,-4.722845433194671,-5.469733458121733,2990547000000,
-1.7981504854670407,-4.599180062617878,-5.473060414919116,2990552000000,
0.6630369454068753,-4.821806237254798,-5.477342159890596,2990557000000,
10.05024757660396,-7.028637763284883,-5.485812561802412,2990562000000,
6.12574159716012,-4.912093571633718,-5.488539406314002,2990567000000,
-11.015347872240433,-3.4045848045860203,-5.485680022524743,2990572000000,
-0.8397584232157714,-4.214078858411231,-5.487971986962384,2990577000000,
0.5224295800919688,-4.535150486585468,-5.491016196780181,2990582000000,
12.08516710390001,-5.216733301227749,-5.497615280659477,2990587000000,
3.1167515366535357,-5.0654323719492185,-5.498087825298289,2990592000000,
-11.386789979901774,-4.379713547308683,-5.49479888774119,2990597000000,
-0.135916565990652,-4.604412858217042,-5.497555501749206,2990602000000,
0.751450029003177,-4.650831872513388,-5.50022718048211,2990607000000,
13.539100224263391,-5.234799705435338,-5.50716554619124,2990612000000,
-3.6164221540580375,-4.841195940401553,-5.505971231808172,2990617000000,
-6.459793576474569,-4.6101929205418255,-5.505509136719136,2990622000000,
0.13047194605378817,-4.692118297957227,-5.5091498846784095,2990627000000,
0.7524980508079309,-4.681894418397037,-5.513268805701899,2990632000000,
14.311081167777752,-5.0933560549686545,-5.519167825849932,2990637000000,
-11.627415947493176,-4.70836342819607,-5.51475801971748,2990642000000,
-2.5039143759882645,-4.70288355352928,-5.516566460247999,2990647000000,
0.5391111592194393,-4.604244534761407,-5.518992863269642,2990652000000,
14.035823973337923,-4.7638279001254125,-5.524893542464324,2990657000000,
-9.100169492150322,-4.782098436475071,-5.520633843934643,2990662000000,
-1.8714532082896125,-4.674604084192554,-5.521809352617477,2990667000000,
8.59443771669869,-4.689116010105497,-5.526309847183822,2990672000000,
6.885480315308016,-4.812465884337162,-5.527442664858276,2990677000000,
-10.52148792887834,-4.809553860524849,-5.522060351266254,2990682000000,
-0.8173691316455407,-4.722624141085498,-5.523105377186958,2990687000000,
8.645131209510069,-4.65222371440467,-5.528005972130391,2990692000000,
6.343580745050135,-4.743982882397494,-5.528525038732382,2990697000000,
-9.32903346725629,-4.9105598335020835,-5.524007032743536,2990702000000,
-1.8459662462282591,-4.803142392498307,-5.524474903601638,2990707000000,
0.619704420251841,-4.611886699858879,-5.525965687798955,2990712000000,
15.663309691588054,-4.674709930930109,-5.530781590472939,2990717000000,
-5.158538073074427,-4.95286842542261,-5.526135118696075,2990722000000,
-6.747699168951351,-4.923582522606307,-5.5233158595009435,2990727000000,
0.09270299928990268,-4.600399631582904,-5.523357057870883,2990732000000,
16.613530708959505,-4.318770175662981,-5.527783890986189,2990737000000,
-1.9569584972086729,-5.060110867897501,-5.523037000584013,2990742000000,
-12.78932392676946,-5.162696290479098,-5.516057545577716,2990747000000,
-0.5173335751844288,-4.6855751918943085,-5.514978190243387,2990752000000,
16.871463118974376,-2.2651062339006223,-5.518939969363361,2990757000000,
-0.8035968842067752,-6.255470564290712,-5.514677498330657,2990762000000,
-11.080948160495096,-5.627162161255976,-5.507600971225751,2990767000000,
-1.0768625036627923,-4.942797692826184,-5.506650432738968,2990772000000,
15.770766021345215,-1.7719187492361228,-5.51104237964555,2990777000000,
0.12847175382976428,-6.523437585181458,-5.507688067927194,2990782000000,
-9.525845267255992,-5.668733032689544,-5.501743832845057,2990787000000,
-1.8800516085653831,-5.001260728898376,-5.500607402103011,2990792000000,
17.04897340988656,-1.202900946742466,-5.505511395241262,2990797000000,
-0.8786813899429574,-6.750782245120084,-5.501574865047216,2990802000000,
-10.094316763336339,-5.9509838246573565,-5.494871505422564,2990807000000,
5.288928576430111,-5.022267777426206,-5.49530028433771,2990812000000,
7.1857407881114375,-1.4052277494195813,-5.493875081226633,2990817000000,
0.05636975566462918,-7.04541380632039,-5.489208729974736,2990822000000,
-10.888842431967543,-5.864484184284327,-5.481760062428506,2990827000000,
13.356335312432972,-1.6263582190712564,-5.483425964608308,2990832000000,
1.205617401396225,-5.105975873871751,-5.481007079069603,2990837000000,
-0.34125496082199175,-6.365585273939484,-5.480468195108232,2990842000000,
-12.67097192691591,-4.6000626119777515,-5.4760984626185385,2990847000000,
13.465683536681828,-3.9631012856289622,-5.484485214789203,2990852000000,
-1.079112704197666,-5.911028313105645,-5.483684825817621,2990857000000,
-0.7677678322647516,-5.547358921447637,-5.483015803573617,2990862000000,
-9.914768872431459,-4.579898012803217,-5.480026005858366,2990867000000,
12.237511298063726,-3.020562994194414,-5.486502216062997,2990872000000,
1.2002201049993042,-5.246397737234373,-5.486722320283937,2990877000000,
-0.2249007470155662,-6.054427990447309,-5.485767559333673,2990882000000,
0.5378792093621372,-5.280044885460312,-5.485250016309202,2990887000000,
-10.718156968229618,-4.471039650915257,-5.481527565943738,2990892000000,
14.648150808625296,-1.949495620659412,-5.486597253664911,2990897000000,
0.01748295044384513,-6.21969666516307,-5.485187112747056,2990902000000,
-0.02853490791545219,-6.159998380503257,-5.483858436427302,2990907000000,
0.5579346446599297,-5.328447706939948,-5.482166891937858,2990912000000,
0.8138991410257663,-5.032573108955071,-5.480761513516479,2990917000000,
0.8236765492318806,-4.912322678461224,-5.479422427735191,2990922000000,
0.8916537019426487,-4.88599392505675,-5.4780692168573015,2990927000000,
0.887188982032351,-4.873126373293433,-5.47751153591047,2990932000000,
0.8738322214301412,-4.857141607362568,-5.476375594473389,2990937000000,
0.8888755001590735,-4.8100494845757,-5.475975931040363,2990942000000,
-0.6532540617009766,-4.854682920389841,-5.474948664018461,2990947000000,
0.6491430169823094,-4.811128705124801,-5.474506470907476,2990952000000,
0.9398324864665238,-4.794048728531115,-5.473061435190219,2990957000000,
2.693467384658817,-5.3645727449789025,-5.473319080358628,2990962000000,
2.222782462255037,-5.235236546191788,-5.472534196993356,2990968000000,
2.91180930167288,-5.343905685116909,-5.471814378859523,2990973000000,
1.9263325952154202,-5.049416793139959,-5.470066631735894,2990978000000,
0.9643559721761867,-4.845176575645108,-5.468360476368638,2990983000000,
0.7998563251627383,-4.856281977179092,-5.465688391122392,2990988000000,
0.7554796042566492,-4.708643214184615,-5.462507618730692,2990993000000,
0.843910506443577,-4.887067241834108,-5.459348570655034,2990998000000,
0.9509976329098673,-3.5057626779188067,-5.455845721547217,2991003000000,
1.022809237365892,-2.1070057654679437,-5.4531245775647506,2991008000000,
0.8316613254452682,-4.158103705888516,-5.450445352245132,2991013000000,
0.9026321360373957,-3.712546993563858,-5.4475096677316674,2991018000000,
0.8111551655816783,-2.999550766263531,-5.44509571668587,2991023000000,
0.8698532854429389,-4.876655281681208,-5.442637990090772,2991028000000,
0.6988823332378742,-3.5426936900006707,-5.439935242836598,2991033000000,
0.781511882608781,-3.0380387250676426,-5.437284840300939,2991038000000,
0.7815624746760896,-3.7169912384057473,-5.434668569063665,2991043000000,
-0.1521860058125096,-4.846060148012276,-5.431374555057192,2991048000000,
-0.1712294199461252,-5.002877621030134,-5.427850235390185,2991053000000,
1.2380921352953582,-5.098323947815742,-5.424795467929248,2991058000000,
0.9358999018533463,-4.864925039849357,-5.421363364693202,2991063000000,
0.9294108120408446,-4.60212888629524,-5.417535317690687,2991068000000,
0.9790681262313948,-5.055856627355814,-5.414254106925493,2991073000000,
0.7826555940968969,-4.734740807969892,-5.410068840072173,2991078000000,
1.0632643972255442,-5.013737024458077,-5.40640049631999,2991083000000,
0.7857521217200552,-4.607626211691502,-5.402458437883396,2991088000000,
0.9544225244557719,-4.769161667153268,-5.399183019264153,2991093000000,
1.1079366183054153,-5.021796310069531,-5.395425253593106,2991098000000,
1.1826276235717592,-4.709774158604648,-5.3923083529504625,2991103000000,
1.2227984687422981,-4.850924127951891,-5.389223694294223,2991108000000,
1.0071313237033186,-4.4422944398915645,-5.384979631839772,2991113000000,
-1.8012018333413067,-3.2668372104691454,-5.380205395155598,2991118000000,
1.2025637942165062,-5.029799792887521,-5.377541790661834,2991123000000,
1.6699804562382385,-5.870351738827419,-5.37367079709432,2991128000000,
1.9100858239486265,-6.271190840064615,-5.37127112249488,2991133000000,
1.9700643204266368,-6.126691241969661,-5.366605965505266,2991138000000,
2.159390780415409,-6.5922342512427035,-5.366996127120783,2991143000000,
2.7461948576292805,-7.015305059207546,-5.366518644779549,2991148000000,
2.8021426880122817,-7.095644075008507,-5.36667514480971,2991153000000,
3.0254946499798367,-7.177813939106485,-5.366451817141835,2991158000000,
2.550521463751872,-6.52060174873189,-5.3666663438087205,2991163000000,
1.1320585567956338,-4.97365761270754,-5.365290789417803,2991168000000,
0.8493618019691607,-4.69004273410099,-5.363874897286207,2991173000000,
0.8009724789609954,-4.645760454682553,-5.363111576317526,2991178000000,
0.6876854470942732,-4.63309749442856,-5.362482801651858,2991183000000,
0.7657397698509428,-4.5813412134623945,-5.3619610349199744,2991188000000,
0.8084988889397956,-4.60802516888339,-5.36130676592958,2991193000000,
0.7076777176087133,-4.538403208141042,-5.36144218831336,2991198000000,
0.7830493501854008,-4.639747520555637,-5.3609977626079335,2991203000000,
0.7695618663724472,-4.598982085225684,-5.360873284850425,2991208000000,
0.7571715345931112,-4.669448674160528,-5.360063783325169,2991213000000,
-0.10181503475299135,-4.592604128530481,-5.359332319471442,2991218000000,
-0.0002854339282080374,-4.662786967227694,-5.358099532554412,2991223000000,
0.8366946052426661,-4.571540910215818,-5.356829296536455,2991228000000,
0.7869273072317208,-4.610226091946115,-5.355279949045502,2991233000000,
0.7145902768469817,-4.501959012387272,-5.353826714501217,2991238000000,
0.7141768988103105,-4.53158084947419,-5.352078450022276,2991243000000,
0.7601169404192947,-4.564981298866321,-5.349935889394661,2991248000000,
0.7881235204938659,-4.610402851636094,-5.348214769299564,2991253000000,
0.8466391196086567,-4.634899540343188,-5.34574572603033,2991258000000,
0.7921944815625293,-4.569961679033849,-5.344634500711033,2991263000000,
0.8012652266468511,-4.586977344778545,-5.342516870882316,2991268000000,
0.7785624916371487,-4.596633043658159,-5.340870525641702,2991273000000,
0.7849288572038055,-4.5427024992618055,-5.3387552585522435,2991278000000,
0.8890250774910589,-4.639865689862739,-5.336930330383406,2991283000000,
0.7491972837816694,-4.57721498534473,-5.335076055591603,2991288000000,
0.7944850613846667,-4.621273712743366,-5.333053323383998,2991293000000,
0.7828230436905224,-4.608736779517356,-5.330616101764456,2991298000000,
0.7995357635835103,-4.7345161561823135,-5.327631762785652,2991303000000,
0.8617737977770779,-4.608533502890879,-5.32547508972447,2991308000000,
0.8285345878134083,-4.474755486242576,-5.321273824786877,2991313000000,
0.7946959760698732,-4.655929625687154,-5.318564922863253,2991318000000,
-0.9109588356921674,-4.922370804592317,-5.314508256502543,2991323000000,
1.002639634452981,-4.815252947801321,-5.311302299033463,2991328000000,
0.8895303263357448,-5.006201139010988,-5.307731331974447,2991333000000,
0.894129802002705,-4.864504693421811,-5.304350118095104,2991338000000,
0.9193836785160414,-4.940403686303134,-5.3015380420234735,2991343000000,
0.8893431694166135,-4.918624256027623,-5.299097263413571,2991348000000,
0.8864374029968328,-4.949850618360499,-5.296034525669402,2991353000000,
0.9707541175519929,-5.109437147634123,-5.29382625577269,2991358000000,
0.8143067367673417,-4.58139241225857,-5.291184030650963,2991363000000,
0.8665939563869404,-4.8633853528931015,-5.288805492818167,2991368000000,
0.7876776863040205,-4.495596633722576,-5.285669973988152,2991373000000,
0.8603022650706391,-4.663226318996489,-5.282406817668263,2991378000000,
0.8852492928468423,-4.739264680065534,-5.280208872669619,2991383000000,
0.9300139909738752,-4.856456645938406,-5.276128919619996,2991388000000,
1.0501794347202282,-5.010125527154685,-5.2724077188537075,2991393000000,
0.763961698190959,-4.509502324813019,-5.268328236922453,2991398000000,
0.08721802442723393,-3.0813364932967797,-5.263500701367223,2991403000000,
0.7906659135388754,-4.497567541858655,-5.258189074558171,2991408000000,
1.4442797652770918,-5.509069833378401,-5.253699247618005,2991413000000,
1.7040880550008404,-5.97487233211464,-5.249332910838097,2991418000000,
0.709552447141127,-6.260024040167286,-5.244209765486515,2991423000000,
1.3430203774564802,-5.664389724488903,-5.241845455473985,2991428000000,
2.4678273294926516,-6.749365730919133,-5.24211945402457,2991433000000,
2.567805346823582,-6.8261531910220326,-5.24281140908786,2991438000000,
2.698871896767908,-6.900960367817006,-5.243796978246785,2991443000000,
2.8593988121738847,-6.993259818085996,-5.24479365289572,2991448000000,
1.812014194743211,-5.634294958433458,-5.245600454562338,2991453000000,
0.9870181138398917,-4.7351158287993576,-5.245312251593585,2991458000000,
0.7714147983263148,-4.5029566995063455,-5.245527234743625,2991463000000,
0.7767297984225534,-4.554350384852438,-5.245201571543062,2991468000000,
0.7371285455847194,-4.456484699707008,-5.244915306413027,2991473000000,
0.787518399708091,-4.472405405936199,-5.24423353045971,2991478000000,
0.7914583123099087,-4.656833069815925,-5.243543520970307,2991483000000,
0.8494982634665339,-4.511605067309649,-5.243006770777095,2991488000000,
0.8027519498989947,-4.441248197301644,-5.241698509290745,2991493000000,
0.7673561362406819,-4.620397603250435,-5.240696115593383,2991498000000,
0.817949376911489,-4.505319023699899,-5.2396116696594595,2991503000000,
0.7617903107362345,-4.389145045629701,-5.238753036593678,2991508000000,
0.8010199190669056,-4.525004992186652,-5.237807148311824,2991513000000,
0.7671516829623808,-4.512335102466436,-5.237012691978544,2991518000000,
0.758477232132454,-4.517624624080319,-5.236280884219495,2991523000000,
-0.6281549477888759,-4.388264652321638,-5.234732449038526,2991528000000,
0.8705230194283147,-4.549923417110146,-5.233841934787686,2991533000000,
0.8684017639760501,-4.468799647282142,-5.232767127339394,2991538000000,
0.8338875593785443,-4.490140979111572,-5.2314024980956875,2991543000000,
0.7664227711723333,-4.4848049612473435,-5.229960639058909,2991548000000,
0.8310860229847161,-4.547759633638382,-5.228372640117181,2991553000000,
0.7713000543587427,-4.509770649777649,-5.22648059502233,2991558000000,
0.8476165445091304,-4.463431273019048,-5.224252095980768,2991563000000,
0.4053076139637563,-4.985272198371309,-5.222694775685364,2991568000000,
1.8302082386062255,-4.413373531096815,-5.2211085853851955,2991573000000,
-12.371681596270665,-8.006741930484568,-5.215049985369673,2991578000000,
-10.52807670756034,-8.796533095582658,-5.211135199936814,2991583000000,
3.516663289236146,-4.1937490774586665,-5.2130442068129375,2991588000000,
3.8213573801408014,-4.349582050025736,-5.215002851151596,2991593000000,
3.867799177625383,-0.988322581230176,-5.2172557115395595,2991598000000,
3.784539919858975,-1.9484740828506093,-5.21994482566624,2991603000000,
14.166828890456372,-3.1414984301968505,-5.224511592103066,2991608000000,
0.9348847382694084,-4.348970324889025,-5.2228779586217895,2991613000000,
-0.112850781644899,-4.085434268827402,-5.22055102222684,2991618000000,
-4.832091302499259,-4.684680922834178,-5.215857724110761,2991623000000,
-0.8323192145184104,-4.534611868508382,-5.213103017153985,2991628000000,
1.058484097980894,-4.008722515430084,-5.210215981577359,2991633000000,
0.6337466030466067,-4.407541850684873,-5.20667713477559,2991638000000,
1.595807937758562,-3.9358478749568606,-5.203760712320674,2991643000000,
-54.933115902563685,-92.07888644739887,-5.130927186006263,2991648000000,
-8.498441383612505,10.171776010484566,-5.112086555396391,2991653000000,
-6.0755457711012975,16.580771182286192,-5.095457094213494,2991658000000,
-18.538603219674993,5.157877330060356,-5.05763478498762,2991663000000,
-16.518200937562327,-23.34621906062181,-5.0222211140833215,2991668000000,
-7.4198049812311435,-8.530299287294552,-5.001620731595143,2991673000000,
-0.29277133089688817,0.9555567064057213,-4.9896563065491595,2991678000000,
-2.797861189553174,3.4461652784481713,-4.989134554982381,2991683000000,
-4.417384493823081,0.5921722869757534,-4.9889171257434715,2991688000000,
-5.9567149000584,-0.814055814306572,-4.9878130728637,2991693000000,
-6.584742951168539,-0.2021932903924416,-4.98709227610655,2991698000000,
-7.47371978757462,-1.6175546522734214,-4.986398415291227,2991703000000,
112.13376741983556,44.35822150957371,-5.045942766676157,2991708000000,
15.804887101312035,1.1006599182522565,-5.0585407410299945,2991713000000,
4.324802352157811,-3.5679385768891896,-5.0646941051422,2991718000000,
12.674383227199787,-6.869723494533153,-5.072024795623159,2991723000000,
-5.49361106542753,-1.4080712412407115,-5.070134252868781,2991728000000,
-6.754950233184814,-2.7147315349918517,-5.0680198398751655,2991733000000,
-6.8305941523920595,-3.2780215999930813,-5.067597787897908,2991738000000,
-0.2543456398033808,-3.790540745953136,-5.071629848870493,2991743000000,
0.4567117650419263,-3.866723700332175,-5.075131705938099,2991748000000,
0.6006637405332697,-3.872964122206918,-5.079045114107893,2991753000000,
0.70291294356927,-3.911553494903587,-5.083017311791547,2991758000000,
0.6980294785682066,-3.9560405466207365,-5.087655480265101,2991763000000,
0.6848704609967865,-3.8599220711486057,-5.091686776718766,2991768000000,
-2.5944486661315653,-2.4948177341496947,-5.094693347471592,2991773000000,
0.744115514003305,-4.08818602667027,-5.099162974453307,2991778000000,
15.777929787088343,-5.288767065317866,-5.109135819658932,2991783000000,
-6.74714709632534,-2.6881634480384733,-5.108127125587756,2991788000000,
92.77603223426813,-6.583077217614307,-5.060672616886127,2991793000000,
8.75308939991255,-8.876561094566446,-5.051701692117869,2991798000000,
-7.362629234348804,-3.039570082225746,-5.049379306122036,2991803000000,
-2.4810260299536564,-4.826697592858222,-5.045894606022978,2991808000000,
-0.27908099050401014,-5.531757082149833,-5.039800011313216,2991813000000,
5.703296514073158,-5.133463227680216,-5.033516756237944,2991818000000,
2.6401122056683066,-6.91553810166671,-5.028284391472183,2991823000000,
2.5926689030512042,-5.331747002824008,-5.020438185983753,2991828000000,
0.05054800519325092,-7.36445329675932,-5.014869549668381,2991833000000,
0.16734986332976204,-7.439264531399138,-5.008817806185499,2991838000000,
-0.059500291745368424,-6.117310522449563,-5.003356956601882,2991843000000,
-0.22287574434659274,-4.608321270168598,-4.997458764717187,2991848000000,
0.10513876695197398,-3.9506745687686324,-4.991979523010627,2991853000000,
5.781036333802125,-3.8980816503268705,-4.984011818435188,2991858000000,
4.18013149870767,-2.9668936511595723,-4.9769708460301665,2991863000000,
1.1929176876354843,-4.994147703454004,-4.971995718702424,2991868000000,
0.5163401114531821,-5.630201429357764,-4.9669500407972675,2991873000000,
0.38417542051657094,-5.718023275908571,-4.962785563647493,2991878000000,
0.3576472457901741,-5.866572012182378,-4.958149407611547,2991883000000,
0.40232439876442205,-5.834872098266135,-4.953226566878149,2991888000000,
0.432602975927861,-5.7739255497939075,-4.947796323385402,2991893000000,
0.4029408572772713,-5.811576175132775,-4.943003571099999,2991898000000,
0.35359510814361045,-5.826569677313739,-4.937671332329949,2991903000000,
0.38490084548628456,-5.93623097814782,-4.932128390369225,2991908000000,
0.3086051244905995,-5.847101736995053,-4.926473878737896,2991913000000,
0.2937041747895138,-5.766063882955574,-4.920931613302565,2991918000000,
0.32084281416357946,-5.850099751934392,-4.915106745300714,2991923000000,
0.2909630047137025,-5.838390046611221,-4.90924728070555,2991928000000,
1.2162737389271088,-5.956900913172049,-4.90305900406467,2991933000000,
0.4631725372315999,-5.942882967675743,-4.897531820926062,2991938000000,
0.2581556632252652,-5.948939408787391,-4.891652955068919,2991943000000,
0.30579303905146754,-5.920967664272014,-4.885887694243302,2991948000000,
0.36246690713124624,-5.911540805077636,-4.880472476865574,2991953000000,
0.34474171876868764,-5.772279555360952,-4.875518941545543,2991958000000,
0.3619601932557459,-5.758917279280787,-4.869913049762688,2991963000000,
0.2970879192506054,-5.542140092887664,-4.864907037906896,2991968000000,
0.3884125867647893,-5.758590744459259,-4.858558630043088,2991973000000,
0.43962409244808165,-6.031282303780649,-4.853673286786199,2991978000000,
0.5896943632085191,-6.3525434927698035,-4.848652449593577,2991983000000,
0.6950017751312422,-6.713949384861116,-4.842604324068296,2991988000000,
0.86181131845503,-7.017483208361481,-4.837184346153036,2991993000000,
1.0471377898415315,-7.431888129848005,-4.831138239789286,2991998000000,
0.8906554665289962,-6.826885887307673,-4.826716879676079,2992003000000,
1.5253704097526077,-8.094730300644873,-4.822038570758429,2992008000000,
1.6811980217991107,-8.204379709224982,-4.817105260695766,2992013000000,
1.3452902129765407,-7.501988628573806,-4.812963420003916,2992018000000,
0.7845877456495597,-6.159243911563185,-4.80882992209684,2992023000000,
-20.011667683886348,-4.476901634633899,-4.694631546021783,2992028000000,
-7.48961759349774,-4.318974052854578,-4.5231182788345645,2992033000000,
-1.974432184683313,-5.023243016506012,-4.353669997843943,2992038000000,
-2.741114398831512,-5.58442289996573,-4.177046964113102,2992043000000,
-6.029094262803791,-5.404008838428846,-3.9458027831035403,2992048000000,
0.8020981895975244,-2.2776113399992437,-3.795555506261957,2992053000000,
-4.764764863916411,-3.754823727669341,-3.6234100761722896,2992058000000,
-0.6169089935708704,-3.088496334408269,-3.5278924446641566,2992063000000,
2.046425853397502,-2.9914665358161456,-3.4757341530114667,2992068000000,
0.7576541528209402,-3.1847620562201358,-3.4200513796143968,2992073000000,
0.6996923992107652,-3.217681635207791,-3.373714618796416,2992078000000,
0.5223748470521848,-3.2571946397450766,-3.332837535583159,2992083000000,
0.32735959701213785,-3.2865670049751126,-3.2955527059625824,2992088000000,
0.20280087720684328,-3.2153944955567875,-3.2605659921825865,2992093000000,
0.12394811910764061,-3.2138003606002337,-3.226714118021905,2992098000000,
0.20190684433487413,-3.1851830786354602,-3.18753571091198,2992103000000,
-5.7616383564012,-3.2167727066925766,-3.152676972865642,2992108000000,
-3.077463241794934,-3.0425611174445435,-3.141993605990761,2992113000000,
1.3047220898435004,-3.005574405438344,-3.142194781405071,2992118000000,
0.5214980207854363,-3.0433251988433168,-3.1422054940447857,2992123000000,
0.058025855147168695,-3.162422592052811,-3.1422799685396545,2992128000000,
-0.012167341438183127,-3.154566041975769,-3.1425713088297598,2992133000000,
-0.8355273752885121,-3.1685537111669038,-3.142181447483295,2992138000000,
-0.04474819492400263,-3.186688309654191,-3.1422197628145807,2992143000000,
-0.025226268127943704,-3.195441915872008,-3.1426067683307197,2992148000000,
-0.03149946221600554,-3.257669371833697,-3.142590391144785,2992153000000,
-0.030048423360806306,-3.238602926935999,-3.142660552864012,2992158000000,
-0.03026822269906243,-3.288566124849088,-3.141999486715494,2992163000000,
-0.028030693825553704,-3.269736575056541,-3.1412877083011304,2992168000000,
-0.016561095144394095,-3.2874768809568717,-3.140879047437586,2992173000000,
-0.012338368032430174,-3.31185931175589,-3.1403873261725352,2992178000000,
-0.0008640021511935377,-3.2818885144423633,-3.139596667084644,2992183000000,
0.10474209544333167,-3.336387616321769,-3.138704609602927,2992188000000,
0.21454775333235254,-3.303972089965086,-3.1377830954639325,2992193000000,
0.2542815482164986,-3.269113318944007,-3.1369763899888343,2992198000000,
0.2422647585262438,-3.3400911705290617,-3.1365299962795907,2992203000000,
0.258589878690919,-3.3305295055977386,-3.135836524003303,2992208000000,
0.283472041822944,-3.341694659632508,-3.135043829983716,2992213000000,
0.2703709438476843,-3.32317058537417,-3.1344659057474047,2992218000000,
0.2433304144374236,-3.343889787768306,-3.1336278408955716,2992223000000,
0.27803145693557635,-3.3748989147008595,-3.1333912683455325,2992228000000,
0.2926285220034305,-3.3649517070303396,-3.1322288770925604,2992233000000,
-0.3622632866984541,-3.3931011891633633,-3.1311338587808453,2992238000000,
0.07937723692853206,-3.376985546420039,-3.130560011750296,2992243000000,
0.6441191090739603,-3.138468989477474,-3.1288580253945906,2992248000000,
0.1818272611572973,-3.3696226211093245,-3.126821674311891,2992253000000,
0.2362604099083739,-3.3947960788241422,-3.1250939176832286,2992258000000,
0.2738932147790934,-3.3763459524010666,-3.123734145337273,2992263000000,
0.2671587760344124,-3.3804147148341976,-3.1218130028287927,2992268000000,
0.27884900530395096,-3.4527351689125543,-3.1202152094538476,2992273000000,
0.29873641946979423,-3.4363726156143337,-3.118489184059257,2992278000000,
0.28535709232293893,-3.4414849821532987,-3.117431171270705,2992283000000,
0.26490876094551197,-3.4716462560105135,-3.116062021794406,2992288000000,
0.2973986259891761,-3.4546228088366653,-3.11467722754544,2992293000000,
0.26775662614143236,-3.4688462858106663,-3.1134076137160123,2992298000000,
0.2887890805995035,-3.4878130338998767,-3.112556212812892,2992303000000,
0.2856055565573999,-3.5153770085244656,-3.1116599350767227,2992308000000,
0.2806570816739348,-3.5054493019151924,-3.1100699246626267,2992313000000,
0.2970089134097424,-3.5131827450017017,-3.108490231165846,2992318000000,
0.2968581704661085,-3.5347864665864015,-3.1071089202132365,2992323000000,
0.311549119420203,-3.5144258472288636,-3.105541864807084,2992328000000,
0.2919564462869581,-3.550435754889657,-3.1038536296222436,2992333000000,
0.3155933274764311,-3.5521226366060032,-3.1018945685854686,2992338000000,
-0.5827715536956973,-3.534767636949844,-3.100157576971734,2992343000000,
0.35536926250237705,-3.547810477852987,-3.0979840901133624,2992348000000,
0.33756883268556165,-3.5599136850769013,-3.0959142688868977,2992353000000,
0.35911713793486816,-3.5570769302128626,-3.0940068746089406,2992358000000,
0.3510887854500099,-3.5529510698835525,-3.092228152322245,2992363000000,
0.3374688723264857,-3.5178684402464215,-3.0904546840549956,2992368000000,
0.3397306830839728,-3.596503637162742,-3.088397812043632,2992373000000,
0.33391179911767266,-3.5548222474912574,-3.0875109699565373,2992378000000,
0.3636141916631982,-3.579572454365589,-3.0865548791144053,2992383000000,
0.3531388006717754,-3.5955008487981126,-3.084912698042852,2992388000000,
0.3476555219959397,-3.614777796111213,-3.0836928299409534,2992393000000,
0.35040575757003184,-3.6055047153169615,-3.083047718677504,2992398000000,
0.3537125097122064,-3.6205735478655154,-3.08167753525734,2992403000000,
0.38142579991623254,-3.6258458147682737,-3.0810218383427532,2992408000000,
0.38674664689197263,-3.6095575401216107,-3.0800248121483063,2992413000000,
0.38516693094974264,-3.62024939435249,-3.078535408591189,2992418000000,
0.4206009521133376,-3.6299500448441484,-3.077668313528871,2992423000000,
0.37829491294920137,-3.6204341838087672,-3.075971089220434,2992428000000,
0.38011755670941233,-3.6506273566843,-3.07372628363987,2992433000000,
0.40876702428135836,-3.6196362795517723,-3.07266096526303,2992438000000,
-0.2947123552348106,-3.65108713497426,-3.070124842282337,2992443000000,
0.28921627520087884,-3.6196462208803375,-3.0686334962001887,2992448000000,
0.46186314487536084,-3.627160561379256,-3.066455328351688,2992453000000,
0.4741768967880812,-3.6425016458384425,-3.0652639225493052,2992458000000,
0.4305773914027355,-3.651976748402284,-3.063750967188279,2992463000000,
0.4288098471015387,-3.6564690866550045,-3.0622429383024223,2992468000000,
0.46673442461512077,-3.6473653715250482,-3.0603874471918986,2992473000000,
0.4342353435982685,-3.625473429450804,-3.0591417247538493,2992478000000,
0.46957186485273505,-3.6434487102753677,-3.0579990097092256,2992483000000,
0.46178576258233833,-3.6464046526659826,-3.056811524893836,2992488000000,
0.4872511276795861,-3.644294595789749,-3.0552031623777287,2992493000000,
0.5214617833478854,-3.6277207770387183,-3.054353621142255,2992498000000,
0.49168782104465686,-3.675545787169871,-3.052891857329906,2992503000000,
0.5001188702141768,-3.6545756147275124,-3.0516462713176833,2992508000000,
-0.29115389868224556,-3.6615767276592144,-3.0496687124317043,2992513000000,
0.5340309284476665,-3.6005853815080746,-3.0479890093554016,2992518000000,
0.5537352268325052,-3.6236924177553207,-3.0468700126516746,2992523000000,
0.5634363097445533,-3.6283668588915226,-3.0451557325995617,2992528000000,
0.11658302776860859,-3.7710417947253085,-3.046071912658413,2992533000000,
0.8157854242424212,-3.8692847094803757,-3.047575971921729,2992538000000,
1.049506654910352,-3.792766452561546,-3.048394223815739,2992543000000,
0.5572971040729436,-3.4772529826965246,-3.047553482307311,2992548000000,
-0.08830241393679975,-3.6386378154436883,-3.048117313087356,2992553000000,
0.7574069063505784,-3.7946441256165286,-3.049460048095753,2992558000000,
0.6260357725028075,-3.675585788373559,-3.0510483299462416,2992563000000,
0.5681197113131881,-3.687633231021041,-3.052388212733033,2992568000000,
0.5551070866977332,-3.626593136500706,-3.053187397771513,2992573000000,
0.5658852946544234,-3.633091965885377,-3.054427473771769,2992578000000,
0.5814201726143138,-3.621278473912005,-3.054750913074333,2992583000000,
0.5655618156922392,-3.6504703165211723,-3.055644453366351,2992588000000,
0.5952645975681067,-3.619690421595898,-3.056259768751288,2992593000000,
0.6048132003968095,-3.6306685302367083,-3.0561617162830776,2992598000000,
0.5896466896734346,-3.656896712344978,-3.0567039672811167,2992603000000,
0.6162468273755258,-3.6276698131440073,-3.056960806976507,2992608000000,
-0.038700257927407736,-3.623594276153368,-3.0568196294423204,2992613000000,
0.5280944954804343,-3.6301928122452214,-3.0567398308364004,2992618000000,
0.6557350906256555,-3.598247983302445,-3.057390683036875,2992623000000,
0.657459236797166,-3.586321448671739,-3.0573581494680333,2992628000000,
0.6744893424852815,-3.5822502396749263,-3.057642478142862,2992633000000,
0.6668784299431871,-3.584808498233351,-3.057724051495437,2992638000000,
0.6488070454533745,-3.586690658842178,-3.05862625762168,2992643000000,
0.6367805047486559,-3.626744420962399,-3.0593300590217765,2992648000000,
0.857804278662123,-3.5217204177975723,-3.060335951728859,2992653000000,
0.90985814321869,-3.546839247216093,-3.0612446905588406,2992658000000,
0.882504225946405,-3.5194235026400222,-3.062357859641709,2992663000000,
0.8769114564210231,-3.5280096068896962,-3.0635731608911074,2992668000000,
0.8879298491871126,-3.533233846505648,-3.063892276088247,2992673000000,
0.9186852336546251,-3.487529650385385,-3.064405324662448,2992678000000,
0.9078483196526022,-3.4829794366288414,-3.0650314710110886,2992683000000,
0.9257102339303245,-3.469623056386532,-3.0652014924585056,2992688000000,
0.9633172809171268,-3.467081883818823,-3.0654398971761827,2992693000000,
0.9907406561122069,-3.4447421865256573,-3.0650293845010492,2992698000000,
0.9606301450135998,-3.423083025499699,-3.0648369201457313,2992703000000,
1.0221147325085076,-3.3890601418736055,-3.064575144121342,2992708000000,
1.0164300786051166,-3.3802281945066395,-3.0643923754750944,2992713000000,
0.26305078099355056,-3.3854084141433645,-3.0634130552531746,2992718000000,
1.0578294782028546,-3.3343924028160528,-3.063135270913362,2992723000000,
1.0322142715491067,-3.360272281620122,-3.063053009008773,2992728000000,
1.0387651822513735,-3.3281074602695306,-3.0629282919635195,2992733000000,
1.0704213714131707,-3.308193903260445,-3.062909529287467,2992738000000,
1.0288274749785937,-3.2912676394527423,-3.0629339397678086,2992743000000,
1.031383161014711,-3.266057991517624,-3.062904647615187,2992748000000,
1.0650689056544271,-3.2036264309771956,-3.0630067237779337,2992753000000,
1.0545276379661346,-3.208917005942625,-3.0634206845439995,2992758000000,
1.0778461519362887,-3.1737997884099043,-3.062727654833885,2992763000000,
1.0940773753063708,-3.1123536689507727,-3.062478680934415,2992768000000,
1.05881510394919,-3.16106874374342,-3.062232719490885,2992773000000,
1.086188429912652,-3.1656516867143796,-3.0619107289945764,2992778000000,
1.0410033868367858,-3.2705835515325172,-3.061450424243953,2992783000000,
1.0443819270233643,-3.3075767882834057,-3.060774184604591,2992788000000,
1.0449571790539594,-3.2329056523373536,-3.0600169224659353,2992793000000,
1.0905077648558186,-3.1929289820568227,-3.0593754019535857,2992798000000,
1.0723075363869206,-3.2207674971185196,-3.058427477881364,2992803000000,
1.0715339523928802,-3.161348487206463,-3.0576660472481842,2992808000000,
1.0750278743006068,-3.209695792211926,-3.0567941395490363,2992813000000,
-1.574898858741638,-2.6710635625399948,-3.0548923792443285,2992818000000,
1.218078395874271,-2.7016029187099697,-3.054490723766257,2992823000000,
1.179520091082714,-2.9561758130238607,-3.053079356088602,2992828000000,
1.1363475743715765,-2.9939137626533614,-3.052475697497165,2992833000000,
1.094378318215761,-3.0165670152977317,-3.0520262787919474,2992838000000,
1.0406432673523642,-3.226304285403685,-3.0508870218611865,2992843000000,
1.1058525595541149,-2.91184908937606,-3.049664077851835,2992848000000,
1.062097749124604,-3.0533786152167646,-3.0485665834190248,2992853000000,
1.0791387881580106,-2.9953473644470066,-3.04716293269888,2992858000000,
1.0303455166400604,-3.1881490434206197,-3.0450217419853396,2992863000000,
1.056380987124985,-2.823582300406597,-3.0441052442559,2992868000000,
1.0112285205237166,-3.129699227387054,-3.042624565437041,2992873000000,
1.0480225832519112,-2.907394213565384,-3.040548207961374,2992878000000,
1.0616216003876577,-3.2472739365239573,-3.0388494495348697,2992883000000,
1.0067501009722253,-2.833742294208291,-3.0375648411868164,2992888000000,
1.0238588351196332,-2.682458492115886,-3.035435779598097,2992893000000,
0.9781815918185331,-2.703883686177649,-3.033871495222097,2992898000000,
1.0414817897171535,-3.197404210434846,-3.032403686637834,2992903000000,
1.0249986520147198,-2.9816422606906063,-3.0305708816588925,2992908000000,
0.9680068583293521,-2.8646885937292073,-3.0299179621115893,2992913000000,
0.6912141680164581,-2.9627418140372908,-3.0276293485934485,2992918000000,
0.7718023032851455,-3.146233488199905,-3.026042365332821,2992923000000,
1.0893486923672104,-3.355070043227725,-3.0248823117524184,2992928000000,
1.0559177619043414,-3.5729387465025897,-3.0231205442005935,2992933000000,
1.1787148785804535,-3.7284927369339087,-3.0216760538093252,2992938000000,
1.1567732956694456,-3.9643171945340616,-3.0199931763824943,2992943000000,
1.1905561349262321,-4.14249085378515,-3.018044048401803,2992948000000,
1.3476761279078069,-4.288934889150696,-3.0154697050550454,2992953000000,
1.3262840216801335,-4.52768791437263,-3.013288905510145,2992958000000,
1.588750284808811,-4.6275626632672635,-3.0110879498840086,2992963000000,
1.294591452411417,-4.516754459321083,-3.0090162739826183,2992968000000,
0.09707261982538967,-5.008638382199898,-3.0104283490198442,2992973000000,
-4.895932378306191,-5.717755636548853,-3.0088675942260865,2992978000000,
-1.3665451043845547,-3.907884061774361,-3.0093193734855053,2992983000000,
0.052487186634470454,-3.278150198468716,-3.0103905361361254,2992988000000,
0.4583473433096102,-3.0999462903853736,-3.011713967551495,2992993000000,
0.6363494182423899,-3.0608285295767717,-3.0131131434567937,2992998000000,
0.7292433652997103,-2.9769801851249964,-3.0155643363051996,2993003000000,
0.6705114944939963,-2.9599776653765395,-3.0177151512648908,2993008000000,
0.7004609643679977,-2.9870105201690103,-3.019482543786345,2993013000000,
0.6974057964603734,-2.9553741403768896,-3.02124253255666,2993018000000,
0.08787413862550422,-2.9829022471603452,-3.0227539613921244,2993023000000,
0.6907256199395636,-2.9792218125675642,-3.024750452988179,2993028000000,
0.705741412488871,-2.9251646918137277,-3.026600780308149,2993033000000,
0.6615605170179383,-2.9286200917048073,-3.0282564356432298,2993038000000,
0.6906356581323291,-2.921350065968322,-3.0300792174917714,2993043000000,
0.676525606778065,-2.918778760488985,-3.03126092160048,2993048000000,
0.6436681700312054,-2.928757002020879,-3.0324799596524254,2993053000000,
0.6688073519275733,-2.8631910453013196,-3.034095726593531,2993058000000,
0.6924643373473004,-2.879731895544194,-3.0349047529052506,2993063000000,
0.6330875384998742,-2.883978040854862,-3.035727983047025,2993068000000,
0.6084691323244694,-2.88313955944479,-3.037076405427032,2993073000000,
0.7564200292085802,-2.8525363539710598,-3.0376682305055884,2993078000000,
0.6213436750942898,-2.87454312756903,-3.038581944144978,2993083000000,
-58.03334689677408,5.949719844103583,-3.007685275159086,2993088000000,
-48.613606548245826,4.014833942150069,-2.9831498933640384,2993093000000,
-34.725460914343834,2.468369258013285,-2.9656898735286843,2993098000000,
-24.741763467515028,1.5293354251581328,-2.9536548472333597,2993103000000,
-17.42012218138977,0.6503418416516257,-2.9453865569399014,2993108000000,
-12.224585877042893,0.2821321761137517,-2.939852669093925,2993113000000,
-8.497078750551124,0.04623663263312322,-2.936067298691533,2993118000000,
-5.801413508275949,-0.09020050249339741,-2.9331699420991346,2993123000000,
-3.9399321390266553,-0.15428503629491624,-2.9313851669973157,2993128000000,
-2.539969637167562,-0.12913598702728,-2.9302978087821776,2993133000000,
-1.570314630782489,-0.11466588420038103,-2.9297067792798313,2993138000000,
-0.8994569273925501,-0.09694105520421636,-2.9293052166776623,2993143000000,
-0.5512297028745567,-0.07587732837999832,-2.9288780828163743,2993148000000,
-0.3054478518370257,-0.02440138372165379,-2.928765153451541,2993153000000,
-0.11968602731885258,0.006418691185351256,-2.9286491081395334,2993158000000,
-0.07143585723556244,0.0058904712995399315,-2.9286386123961634,2993163000000,
-0.062471883035109234,0.021022000650381727,-2.9283179726837343,2993168000000,
-0.07175580366199068,-0.015515312243515683,-2.928348237188806,2993173000000,
-0.08884181103177319,0.004854449193618663,-2.9287509733963977,2993178000000,
-0.07391309374037916,0.016684136878244035,-2.929240301311363,2993183000000,
-0.08137404191310128,-0.004571392595454386,-2.928913139843393,2993188000000,
-0.06400860744985877,0.02392534674889584,-2.9294956945684856,2993193000000,
-0.09095085673015586,-0.01982429816189599,-2.9296288325082998,2993198000000,
-0.08630378302684599,-0.007008802917758511,-2.9295836583101726,2993203000000,
-0.07503437764992696,-0.0028029640638674866,-2.9300821948679916,2993208000000,
-0.10194674970770443,0.009990872037034476,-2.9297376425479644,2993213000000,
-0.06922808315332192,-0.009883967262170397,-2.929677171849203,2993218000000,
-0.10090767080536384,0.0055873460528498954,-2.929188854553187,2993223000000,
-0.08279124464004518,-0.008863653562968811,-2.928816175863188,2993228000000,
-0.07551504983632835,-0.012408964127465654,-2.9286672820266952,2993233000000,
218.47657586625553,-2.191166069029064,-2.812273875105957,2993238000000,
61.69960873540594,0.9102801486964704,-2.731460930511982,2993243000000,
-26.798618935411422,-10.875659633679202,-2.671986350777239,2993248000000,
-52.002745345610464,-20.368862446104583,-2.6510303383002216,2993253000000,
-29.092405443396046,-11.947438044079236,-2.6392057871246095,2993258000000,
-15.70732515286677,-6.799774101630123,-2.6331799285908715,2993263000000,
-8.073165503138476,-3.5396379513401794,-2.630318732865129,2993268000000,
-6.010461294362396,-2.7368933388956886,-2.6281003071241242,2993273000000,
-6.297241520892158,-2.923972439784957,-2.6259983114749694,2993278000000,
-1.2149601779503747,-0.605047441713792,-2.625887557542781,2993283000000,
-0.11606267612894058,-0.03894018746186435,-2.626401415920109,2993288000000,
-0.022966193392533973,-0.04161066783613765,-2.626815730867764,2993293000000,
-0.08408568982165283,0.010253047739444306,-2.6271321735421345,2993298000000,
-0.08576252647642549,-0.006510350445260326,-2.6275035338385986,2993303000000,
-0.04142265622583558,-0.015883805206733194,-2.627523927973304,2993308000000,
-0.06831286990288275,0.006843351444737904,-2.6278552785284726,2993313000000,
-0.0779683163529267,-0.014907792719907048,-2.627289531386927,2993318000000,
-0.0563756954196933,-0.020402800604906807,-2.627535963686821,2993323000000,
-0.05928891262279001,-6.162216422015343e-05,-2.626486362642089,2993328000000,
-0.0667051357377256,-0.00955503187603696,-2.626779197294272,2993333000000,
-0.03295548288039443,0.015921087095929102,-2.625815798968187,2993338000000,
-0.0742579951009983,-0.042584475306285376,-2.6257196522887862,2993343000000,
-0.054295848136689175,0.0006951219765641836,-2.625623171510377,2993348000000,
-0.06964116209319009,-0.011119164020986729,-2.625114794105042,2993353000000,
-0.06471310337310268,-0.020424159573194677,-2.6249799105358846,2993358000000,
137.6835227994969,38.428064045339305,-2.5583136706863696,2993363000000,
0.7174771682003236,-3.7909130245397864,-2.5492971357345913,2993368000000,
-2.3822769622178575,-2.0401327897997334,-2.541769413377699,2993373000000,
0.08040208062377854,-1.2880317680760809,-2.5350982487609866,2993378000000,
0.048446417270104666,-2.080035443210954,-2.5295632729903765,2993383000000,
-0.14020228204907453,-2.6072569412063458,-2.525621402730841,2993388000000,
-0.016156401989844592,-2.3828054878439846,-2.52140334782409,2993393000000,
0.18272097843381319,-2.1896297266813676,-2.5179089241397445,2993398000000,
0.21432526791046105,-2.1724633784551455,-2.514244647931211,2993403000000,
0.4843170357078831,-1.8674004588891693,-2.511263530387771,2993408000000,
0.13330825559982634,-2.2883655657307362,-2.509687847779965,2993413000000,
0.12899087588091518,-2.258364881634587,-2.5077604243044056,2993418000000,
0.20021688451869554,-2.19728093866771,-2.5065837496890397,2993423000000,
0.5271518603987768,-2.161094288170383,-2.5048436387462303,2993428000000,
0.42006688197072106,-2.1369506585778866,-2.503112775699542,2993433000000,
0.15851911240761726,-2.1416088286947526,-2.501529212625396,2993438000000,
0.18163045144466805,-2.103897075639475,-2.499885181796089,2993443000000,
0.19933558749364833,-2.1778530894478774,-2.498028661348171,2993448000000,
0.19061743993274086,-2.111667235280903,-2.496887177104286,2993453000000,
0.16986198312067632,-2.1337041007548496,-2.495546221481494,2993458000000,
0.16786247910971144,-2.1273361893415874,-2.493831688009702,2993463000000,
0.1644892197816946,-2.141191107661684,-2.492824706466629,2993468000000,
0.15035934985514382,-2.087138302903736,-2.4911094584161604,2993473000000,
0.14957318533604955,-2.130612563561443,-2.490052708089585,2993478000000,
0.1378268503854773,-2.111819461373323,-2.488374073937068,2993483000000,
0.14043194744956622,-2.1210052661857857,-2.4876692312229522,2993488000000,
0.14370771874837124,-2.1073283014815773,-2.4856228833425393,2993493000000,
0.11476881454771908,-2.1025908817714116,-2.4840676352353483,2993498000000,
0.12691671455307565,-2.141694297216595,-2.4827272775430322,2993503000000,
0.09662336003600672,-2.1047717545627487,-2.48152825446547,2993508000000,
0.10904463182628625,-2.131122681111702,-2.4794394706758345,2993513000000,
0.12392458925281263,-2.1051420518440263,-2.478168647156359,2993518000000,
0.1139346861681223,-2.120374915981916,-2.4768300822566993,2993523000000,
0.09457319743737108,-2.1574972940469905,-2.4751082303837295,2993528000000,
0.5730030561589833,-2.128193020639822,-2.473321013139507,2993533000000,
0.07828763523242321,-2.170977234258842,-2.4724550518155777,2993538000000,
0.0704659931980902,-2.140226368926592,-2.471098726752538,2993543000000,
0.08380483088513438,-2.1300837954859895,-2.4706258720990752,2993548000000,
0.04570494424293661,-2.1789200482341795,-2.4690640087782563,2993553000000,
0.08270399339891399,-2.16532451664274,-2.4676614820164113,2993558000000,
0.06694612580492339,-2.163043237530233,-2.466233053942904,2993563000000,
0.07723570423440605,-2.1768917049214282,-2.465205302366766,2993568000000,
0.060503979089116235,-2.1885070345240156,-2.463465933751054,2993573000000,
0.018888812815654975,-2.177401116929593,-2.462168406202029,2993578000000,
0.05364641669941459,-2.199745486184065,-2.4609467643040333,2993583000000,
0.03543338991974834,-2.19102381882899,-2.4590148280614366,2993588000000,
0.030070549622029118,-2.198750000937775,-2.4572745254356794,2993593000000,
0.024329448523382168,-2.2059392101964286,-2.455832045384128,2993598000000,
0.00498975673332213,-2.215190799331084,-2.4536943521634096,2993603000000,
0.047736593800440735,-2.21387896177016,-2.452085012981093,2993608000000,
0.03181818262201339,-2.2385488069561212,-2.450545964857678,2993613000000,
0.025284402551817797,-2.2265437538617996,-2.4490545882269483,2993618000000,
0.008611178352124469,-2.2466228472034637,-2.447737104955608,2993623000000,
0.033901080881634224,-2.25180837135135,-2.446392057273752,2993628000000,
0.4740539700637297,-2.259672498733351,-2.4448486143047403,2993633000000,
0.1153719302396207,-2.310710530731814,-2.443961554959722,2993638000000,
0.0019101059061646707,-2.2890971736814993,-2.4428294961411376,2993643000000,
0.006962481398656728,-2.331490271123394,-2.44206990965957,2993648000000,
0.005285182843669526,-2.327085821812493,-2.4408089906656696,2993653000000,
-0.7814869801887531,-2.1385051818917438,-2.4385845998354942,2993658000000,
0.2124387157137336,-2.277863474776365,-2.4354648132971985,2993663000000,
0.031026066168121737,-2.3442478952251906,-2.4319861619492733,2993668000000,
-0.039940557907581685,-2.3121133364083417,-2.428856059224754,2993673000000,
-0.05272542969806562,-2.36137004752821,-2.4255535657626925,2993678000000,
-0.006768528333200179,-2.361835814044421,-2.4223990489132037,2993683000000,
-0.014234944157121609,-2.3890841947720447,-2.418619737655954,2993688000000,
-6.565969985025284,-2.5131191160623736,-2.390953052749151,2993693000000,
1.311972805068013,-1.0178317848504326,-2.3408741474393526,2993698000000,
-6.583238612910524,-1.6187979725845816,-2.2588633999219083,2993703000000,
0.7525942808997482,-3.652693003668826,-2.142417686651797,2993708000000,
0.6439449178759022,-2.206981275301372,-2.0211637630456862,2993713000000,
-0.31925010395928277,-2.0442643877600846,-1.8956293580955983,2993718000000,
0.15902405658268892,-1.5468893279133717,-1.773175033946477,2993723000000,
-0.09388787510640045,-1.732656969965626,-1.6599806156801835,2993728000000,
0.10586980872341556,-1.6477805913813652,-1.5626675213284813,2993733000000,
-0.1837019009135698,-1.4886183648328344,-1.483108737343042,2993738000000,
-0.0029109525539334057,-1.462021227350044,-1.4252280383620206,2993743000000,
0.042666544991799296,-1.4090720878823442,-1.392454463292282,2993748000000,
0.04038570404840869,-1.4212857385983906,-1.3837852500740426,2993753000000,
0.03930494278466885,-1.4422049769416176,-1.3977358142700504,2993758000000,
0.03430134832656281,-1.4575438646671504,-1.4330950525419943,2993763000000,
-0.9077683221328825,-1.6550994327302362,-1.4963076189554905,2993768000000,
2.4301636432701033,-0.6537796997411844,-1.5331799035894196,2993773000000,
0.48141493264259905,-1.8161733305465457,-1.5610832147831903,2993778000000,
-0.19839722259086248,-1.9010927650120644,-1.5787174033375266,2993783000000,
-0.21625025673873663,-1.8361552997912096,-1.5908257675042359,2993788000000,
-0.11507327469913958,-1.7830445961135428,-1.6013282678026144,2993793000000,
-0.6344526487897317,-1.7213473108368336,-1.6113878756225297,2993798000000,
1.2138929185141918,-1.72598215050522,-1.6198615043658073,2993803000000,
0.2293702326156712,-1.7782552246713157,-1.6208291491774875,2993808000000,
-0.2610476778158433,-1.7995408295801918,-1.6211944326777044,2993813000000,
0.4773153664042768,-1.7334344320866732,-1.6207936245285042,2993818000000,
-0.03020901093289493,-1.7990234689239852,-1.6198920044085632,2993823000000,
0.003392086157342466,-1.8183496868155125,-1.6189566334357601,2993828000000,
-0.398493424013479,-1.8961996173723557,-1.618282166870945,2993833000000,
0.492752220560711,-1.7812668452607796,-1.6184935966312641,2993838000000,
-0.008319282686540197,-1.8752855757916649,-1.6175108335833914,2993843000000,
-0.006775507086726692,-1.9087411293087708,-1.616687340889895,2993848000000,
0.04119934115984405,-1.9256324544462486,-1.615923134678988,2993853000000,
0.057185512471837355,-1.9035901467032177,-1.6150365878416042,2993858000000,
0.05415975644531528,-1.9084765908150856,-1.6141656148877312,2993863000000,
0.051823284332310066,-1.9268860698241408,-1.6133392492212848,2993868000000,
0.056463968088507864,-1.962965474942324,-1.6125065238332412,2993873000000,
0.0661026614266234,-1.9555427779299979,-1.6117920379625477,2993878000000,
0.07716047462257945,-1.992188610625061,-1.61034393215349,2993883000000,
0.09321234515979662,-1.9675222949835496,-1.6095680425727699,2993888000000,
0.06912436173144865,-2.0106446602377193,-1.6085513994811578,2993893000000,
0.09773387348909511,-2.009587895407859,-1.6076153245309877,2993898000000,
0.08848190411444608,-2.0188143944613013,-1.607606545914059,2993903000000,
-0.37022435321072705,-2.0392272611328774,-1.6062424950527348,2993908000000,
0.13827026299284406,-2.020738375031546,-1.6055635615049284,2993913000000,
0.1259885270463918,-2.0146498847774383,-1.6051505890051396,2993918000000,
0.11244990002674812,-2.0607294241260434,-1.604011009194639,2993923000000,
0.12411831992497448,-2.0481894200780246,-1.603395490931783,2993928000000,
0.10139180194670538,-2.0336916860366356,-1.602668332095558,2993933000000,
0.1348507087375238,-2.0635603704339776,-1.602344986474959,2993938000000,
0.1403834711765551,-2.0160169930848335,-1.600962700561722,2993943000000,
0.13528131795265103,-2.0594014710723827,-1.6007892182807746,2993948000000,
0.14401065977389035,-2.0587756867925524,-1.5993075007251742,2993953000000,
0.13432044445770427,-2.091138341566471,-1.5984127370295815,2993958000000,
0.15416660237140667,-2.07597248254243,-1.597360518658467,2993963000000,
0.15819689898310946,-2.0615307877717557,-1.596306969069252,2993968000000,
0.18315559794550812,-2.1102002071806383,-1.595649189999695,2993973000000,
0.16733065307376727,-2.0943046441705024,-1.5942980160783724,2993978000000,
0.1488266146636048,-2.1327984015917725,-1.5935844728622328,2993983000000,
0.1653081443821074,-2.115746559479968,-1.592549374611481,2993988000000,
0.1516275079183736,-2.0762016896052473,-1.592012813782155,2993993000000,
0.17308839362939415,-2.101859810903624,-1.5914294337874666,2993998000000,
0.20191229235504304,-2.1454719586152153,-1.590918504113813,2994003000000,
-0.25352147706804445,-2.1449100320807486,-1.5902495219680706,2994008000000,
0.2052123464309639,-2.1097033274688166,-1.58974576011274,2994013000000,
0.24969889317482694,-2.1397205453343076,-1.5894136937851746,2994018000000,
0.21647147689449883,-2.1185161114656137,-1.5889482422220578,2994023000000,
0.19972801849890492,-2.151164119063277,-1.588425066084036,2994028000000,
0.2295101596132582,-2.17368638948886,-1.5879942134505045,2994033000000,
0.26874828879748874,-2.194601806131143,-1.5867988871791625,2994038000000,
0.2121812813204773,-2.143211816926723,-1.5861758830271062,2994043000000,
0.2342362813757329,-2.1775813872769354,-1.584972468556495,2994048000000,
0.26412986791103454,-2.1740136056696544,-1.5843094385076337,2994053000000,
0.2949701245398419,-2.156903538754059,-1.5835349750652472,2994058000000,
0.2588561087795126,-2.1881811225770607,-1.582396398645748,2994063000000,
0.2638701043433993,-2.186362333201226,-1.5812604775132477,2994068000000,
0.2806152689321611,-2.1758606895972066,-1.5804754630066515,2994073000000,
0.31973268305321423,-2.1784256680879714,-1.5797500136087548,2994078000000,
0.2614834150505571,-2.152797840808779,-1.5790601997090539,2994083000000,
0.31891728007290143,-2.1574994780322196,-1.578043235166748,2994088000000,
0.28899013920993766,-2.173310539079585,-1.5776616901674543,2994093000000,
0.3195560244463349,-2.178991219692461,-1.5770869704340722,2994098000000,
0.30367159860282317,-2.1922205627577274,-1.576675202419914,2994103000000,
0.051089876728172244,-2.155502754758959,-1.5757228022632266,2994108000000,
-0.4197076382950986,-2.735083895571679,-1.575717366082662,2994113000000,
0.6264458705782977,-2.1837576876462967,-1.5755882860564216,2994118000000,
0.9070718412510396,-1.7218303004663709,-1.575563893628817,2994123000000,
-0.1466380103383637,-2.500294627448081,-1.5747350231102986,2994128000000,
0.32023712180624386,-2.3745280671503277,-1.5747122106165796,2994133000000,
0.4868341393493916,-2.175532615751066,-1.5744118725614473,2994138000000,
0.4085565956751615,-2.199236557156123,-1.5741745424414744,2994143000000,
0.4229660589985926,-2.1906269403666596,-1.5739765452318115,2994148000000,
0.40618907166463597,-2.1876766261739875,-1.5733479505889896,2994153000000,
0.3969534239528519,-2.153678094578817,-1.5726033866862188,2994158000000,
0.4052218834823,-2.15045345383644,-1.572069637011031,2994163000000,
0.4233577552084991,-2.1530383888617264,-1.571780421685221,2994168000000,
0.4372460639798295,-2.1656155303915834,-1.5711111453837165,2994173000000,
0.41970965935617216,-2.1893000589091822,-1.5705819251056903,2994178000000,
0.4335204658595934,-2.1249584901326886,-1.5703877922713878,2994183000000,
0.41546054374776886,-2.1598292901611216,-1.5699982786473785,2994188000000,
0.42660731421224607,-2.1173802635985206,-1.5689927886245458,2994193000000,
0.4478148290993317,-2.144736542660557,-1.5687960164665555,2994198000000,
0.43837468836136884,-2.1415609338615496,-1.568102610663351,2994203000000,
0.4728540149227404,-2.1460738767565033,-1.5675517594241757,2994208000000,
0.05848024709172528,-2.1342781735348084,-1.567078983758869,2994213000000,
0.46550329483668934,-2.1208753149640978,-1.5661299477691026,2994218000000,
0.4906167163587005,-2.132924427630706,-1.5661471086319205,2994223000000,
0.48840667846069824,-2.1387496377699446,-1.5649721261612897,2994228000000,
0.49915723699757675,-2.1004063100475454,-1.564358939661835,2994233000000,
0.502075089734438,-2.156082250276897,-1.5638326941875595,2994238000000,
0.4924047647087852,-2.162438179598157,-1.562847013620458,2994243000000,
0.6502595563177724,-1.9226414197626602,-1.5620547745899525,2994248000000,
0.6560239131210086,-1.805017826888873,-1.5614610536393074,2994253000000,
0.6505828108601844,-1.8036717770102717,-1.5606295107580945,2994258000000,
0.6407049929298612,-1.8217755431274947,-1.5601398872132648,2994263000000,
0.678898739440036,-1.8283497622809568,-1.5589438998281873,2994268000000,
0.6665395626721307,-1.9414251848194148,-1.5585304780460176,2994273000000,
0.6453833905364401,-2.0108618078458402,-1.5576281913664012,2994278000000,
0.6965429761997118,-2.145722192196767,-1.557021205848551,2994283000000,
0.7121491735726025,-2.2921424483102237,-1.556021020353133,2994288000000,
0.7472093815002742,-2.28126541807011,-1.5556378603135377,2994293000000,
0.674041592715609,-1.7363670544932601,-1.5560855834258205,2994298000000,
0.7112269750538135,-2.2516339129281655,-1.5585537158481122,2994303000000,
0.7674993150947673,-2.8005940505087454,-1.5614811134321642,2994308000000,
0.42358441955270143,-2.692131155135255,-1.5635439187360647,2994313000000,
0.7024055031334291,-2.6929465466604374,-1.5662989802049618,2994318000000,
0.832857852215318,-2.751774812336679,-1.5683670952509134,2994323000000,
0.8107030202963849,-2.6099185470647934,-1.570972220896685,2994328000000,
0.7865476299901674,-2.3201092238307144,-1.5735250464796857,2994333000000,
0.7700876675263679,-2.2503255751320674,-1.5762130211096688,2994338000000,
0.7946143599262327,-2.216557065607418,-1.5787064852077697,2994343000000,
0.7643831622054899,-2.200641693769549,-1.58137121966553,2994348000000,
0.7903513644216656,-2.2191962725490155,-1.583841206608221,2994353000000,
0.7580447612419654,-2.1252234551443774,-1.5864104205163512,2994358000000,
0.7749686369072938,-2.102400425324891,-1.5893164031357434,2994363000000,
0.8113078991784176,-2.1967876239074347,-1.5918412588773798,2994368000000,
0.8194053701101212,-2.2365602753730505,-1.5950159927406014,2994373000000,
0.8058414359729795,-2.1720311853615852,-1.5979118374874741,2994378000000,
0.806348686217535,-2.1341471705573323,-1.600931577844923,2994383000000,
0.838290324816182,-2.1031933640900777,-1.6039878934083387,2994388000000,
0.8454061639652601,-2.1347160425758145,-1.6060245611739357,2994393000000,
0.8722479186108867,-2.112409065372172,-1.6087188088343072,2994398000000,
0.864525023890498,-2.1690277195148613,-1.6113243531534838,2994403000000,
0.8787054096526825,-2.061906905666287,-1.6135756471340394,2994408000000,
0.8725748518602892,-2.1035288904896503,-1.6162149442678007,2994413000000,
0.48723357175224763,-2.124753967085263,-1.6187831843026688,2994418000000,
0.9623953121874605,-2.17283411964445,-1.6208484950865798,2994423000000,
0.8837530604393559,-1.9284153607310424,-1.6236507819418695,2994428000000,
0.8996210968038516,-2.0312010383105186,-1.62570323434626,2994433000000,
0.9017674484248663,-2.0148369273771873,-1.6278468246470792,2994438000000,
0.897688221515641,-2.026984345022779,-1.6305213555053588,2994443000000,
0.9235382611187374,-1.9946566395429017,-1.633108643453674,2994448000000,
0.9159647144543057,-1.9742089179400824,-1.635574276951489,2994453000000,
1.2509152010687044,-2.7436791098339612,-1.6381845263692536,2994458000000,
1.3345954186830613,-2.303122486158111,-1.64180367049509,2994463000000,
1.1036551363021851,-2.1011486956619816,-1.644455217685905,2994468000000,
0.9726386756265747,-1.898295524555547,-1.6465053346849112,2994473000000,
1.0341355283400842,-2.1076136037851128,-1.6501753831543506,2994478000000,
0.9590920666735456,-1.8710113885554212,-1.6530765505580176,2994483000000,
0.9009996261924959,-1.7754191331394962,-1.6559815130436037,2994488000000,
1.0113653978448294,-2.1006053632916233,-1.6586241567684872,2994493000000,
0.9521659436096057,-1.8393772075915804,-1.6613672865714908,2994498000000,
0.8886264138236796,-1.7871407626533296,-1.6642899973725294,2994503000000,
0.9317299270536721,-2.01182657193504,-1.666389567610286,2994508000000,
0.9143538969180165,-2.006249845034053,-1.668805455257929,2994513000000,
0.3918228852736913,-1.809805826589063,-1.6706560045064938,2994518000000,
-4.639460829103961,1.5320491708866288,-1.670621939445735,2994523000000,
-7.352692773385121,0.29186733705668,-1.669006236118133,2994528000000,
-2.0975151797309763,-1.1473956433409351,-1.6699587254670816,2994533000000,
-0.287514248425062,-1.5496431172358789,-1.671860869396683,2994538000000,
0.31314225362226256,-1.7035940784936228,-1.6738795765425778,2994543000000,
0.5246027568504407,-1.7208117123932571,-1.6762769740196233,2994548000000,
0.5729970979001441,-1.7552440614163745,-1.6785248612824561,2994553000000,
0.6188934638651233,-1.7203165561620564,-1.680714721781947,2994558000000,
0.5889393417376937,-1.7547608821477858,-1.6832109741501287,2994563000000,
0.6037269863440783,-1.7417610062193116,-1.6857594849666953,2994568000000,
0.6171671108563465,-1.6939810294793147,-1.688432353852696,2994573000000,
0.587535297467524,-1.7109576458906863,-1.6907159302650925,2994578000000,
0.5958416353235491,-1.7019183541251692,-1.6937626603845848,2994583000000,
0.6206962485550728,-1.6940806953725196,-1.6957834993161693,2994588000000,
0.6091334925979345,-1.668398255740457,-1.6981834131810296,2994593000000,
7.742183346451098,-2.5851883962271276,-1.68653831758367,2994598000000,
2.761259274223593,-0.49351616609705595,-1.6678978228595798,2994603000000,
-1.5893577397026317,-1.8354192096386468,-1.6661310869742436,2994608000000,
1.7416210423057323,-0.30092141833696917,-1.6632687896748897,2994613000000,
5.917144965107241,2.2540766059950634,-1.6578912681071676,2994618000000,
4.027727789017249,-3.0748954660381598,-1.653696054235916,2994623000000,
3.7687796493265684,-5.438654942343086,-1.649399641716008,2994628000000,
2.1421229950597405,-3.676065823335627,-1.6463541195386737,2994633000000,
0.7424919117608499,-2.0527598220617427,-1.6434238389894351,2994638000000,
0.5347548434606211,-1.6031379532753234,-1.6406668089054397,2994643000000,
0.3794991656139081,-1.6495446754120178,-1.6384006720206614,2994648000000,
0.5332198658890851,-1.4657866277097475,-1.6354529409070917,2994653000000,
0.41341233836117397,-1.5947289103047904,-1.6331674300406305,2994658000000,
0.568202272191711,-1.3744361404286478,-1.6301775890405736,2994663000000,
0.4733369528572501,-1.5178987398924666,-1.6273428919232404,2994668000000,
0.5245577278598167,-1.4914995767962724,-1.6246583159070525,2994673000000,
0.3891600259107383,-1.4822549448410405,-1.621657856461804,2994678000000,
0.4917002885677279,-1.4468778494902352,-1.618861339418281,2994683000000,
0.3697931392220092,-1.45849509267579,-1.616366230755639,2994688000000,
0.44568507956335784,-1.4918562293553417,-1.613190061051666,2994693000000,
0.18176775330467335,-1.3083070622119775,-1.6106766487718567,2994698000000,
0.10740419622835468,-1.5843494523332395,-1.6078164297366848,2994703000000,
0.25891789696145695,-1.2955613762867568,-1.6051466304532662,2994708000000,
0.19189318081690757,-1.4180952372939983,-1.6024791005509382,2994713000000,
0.2443845136021753,-1.3660743945289495,-1.599651557157941,2994718000000,
0.5345429005830953,-1.3546625595679265,-1.596792177501056,2994723000000,
0.18910410882842638,-1.4610238647404972,-1.5942806604221424,2994728000000,
0.11236884626158228,-1.3943155873636763,-1.5915829494525093,2994733000000,
0.18252432006326916,-1.4982559091943541,-1.5886857764598437,2994738000000,
0.155898121663057,-1.479441489052112,-1.5861592330416994,2994743000000,
0.10619846645117842,-1.376215794867835,-1.5837311346727179,2994748000000,
0.21528141230680956,-1.432251828612468,-1.5812660944318366,2994753000000,
0.1772108173175462,-1.3922252171057987,-1.5786917676192274,2994758000000,
0.10285906511831193,-1.3575640617267717,-1.5755507500634744,2994763000000,
0.11708331787291251,-1.3489605005764065,-1.572811865109463,2994768000000,
0.07056035937193882,-1.3133512924917508,-1.569113363652285,2994773000000,
0.08703307382717422,-1.32673915944752,-1.5671192811487853,2994778000000,
0.08757608662899652,-1.3171521364004035,-1.5642923815923366,2994783000000,
0.09110906972403546,-1.3338456701213361,-1.5606695545946132,2994788000000,
0.1199793345793315,-1.3044637635988865,-1.5578864782131072,2994793000000,
0.10522856770405453,-1.3496022765018596,-1.5548560315058984,2994798000000,
0.12769613451133452,-1.3472379595128507,-1.551316377795278,2994803000000,
0.1382190835839734,-1.314321625546704,-1.548596022218506,2994808000000,
0.1275208195577403,-1.3048419871051833,-1.5453691109518954,2994813000000,
0.1428752920976749,-1.3379834528034218,-1.5426568038667643,2994818000000,
0.4535627457054284,-1.3386478156920623,-1.5395964718665778,2994823000000,
0.22312600810435226,-1.312477957898521,-1.5364608981128922,2994828000000,
0.1330127849134301,-1.322743271904837,-1.5335155071757678,2994833000000,
0.16308715217386086,-1.3309519859251402,-1.530844823400725,2994838000000,
0.19234132243471158,-1.2878755446763968,-1.5278961640370818,2994843000000,
0.1869420598079489,-1.3144548012755597,-1.525176743382358,2994848000000,
0.2057211200814017,-1.2750366058940037,-1.5220301948233728,2994853000000,
0.2011010694398809,-1.312861044419927,-1.5191675015927655,2994858000000,
0.18861780714140158,-1.3582462903340156,-1.5164441786053953,2994863000000,
0.22381027291212327,-1.2800936896765092,-1.5133983535831779,2994868000000,
0.17272652566098812,-1.2968565526231208,-1.5095040288406474,2994873000000,
0.21246216283617197,-1.2734148439787514,-1.5064902794862538,2994878000000,
0.20165955099186073,-1.3033396948266285,-1.5032341533094526,2994883000000,
0.20513492445094214,-1.271892979679029,-1.4995821998530316,2994888000000,
0.18646029114343804,-1.3070001725711953,-1.4961031791865342,2994893000000,
0.19043394104493083,-1.3074083958791693,-1.4920596833049955,2994898000000,
0.19882291253091555,-1.2576643269355654,-1.4885110180431176,2994903000000,
0.20605486322497044,-1.2931389321368525,-1.4855733614219213,2994908000000,
0.2128459540737553,-1.2672021120245511,-1.4822935034893572,2994913000000,
0.20626763703928855,-1.2561438899798552,-1.4789177042841526,2994918000000,
0.21438354694744471,-1.2845751475134761,-1.4753617037741846,2994923000000,
0.49135501832380524,-1.2573580198487462,-1.4712830965368162,2994928000000,
0.1889905044007175,-1.3144005429573116,-1.468697732857726,2994933000000,
0.2372848862793743,-1.2741380191482192,-1.4657989071477162,2994938000000,
0.17462202333729346,-1.3050305577267982,-1.462924435667567,2994943000000,
0.1757171516320803,-1.286370893244825,-1.4589391172725246,2994948000000,
0.21258383080065593,-1.2904561611351741,-1.4559899790605924,2994953000000,
0.2187363358423301,-1.257273151340055,-1.4528993620391815,2994958000000,
0.21201724102314065,-1.2866012939179416,-1.449340654544595,2994963000000,
0.21096307614438417,-1.2558844563984237,-1.4458160431690006,2994968000000,
0.19230058437669414,-1.2558279526591043,-1.4412262645133345,2994974000000,
0.17096345019673737,-1.2581451133778512,-1.4381940424897484,2994979000000,
0.21082241327003926,-1.2644719342086665,-1.4344360675362224,2994984000000,
0.22473055640841816,-1.2201359654134287,-1.430630869281738,2994989000000,
0.24174955008734708,-1.2232545521783176,-1.4266257422355448,2994994000000,
0.0801757839973768,-1.8224901990623896,-1.4233299603898952,2994999000000,
0.28010880783141884,-1.103580641727617,-1.4217632128299162,2995004000000,
0.1474314584657605,-1.3109647872446464,-1.4239244960440378,2995009000000,
-0.3838116532393062,-1.6759942545732818,-1.4273948607274858,2995014000000,
-0.29906268874125624,-1.399493844121583,-1.4311879103898277,2995019000000,
-0.04841307483777776,-1.4660028561954386,-1.4339290820443749,2995024000000,
0.052563670545939425,-1.4645683868408634,-1.434944928286844,2995029000000,
0.1272585606557741,-1.4346372516146522,-1.4330332184384698,2995034000000,
0.11853130922756971,-1.4056518544970655,-1.430149649409078,2995039000000,
0.13910774582791063,-1.3845250236389839,-1.4260338544862197,2995044000000,
0.15813102464185905,-1.3668333232976935,-1.420600266991255,2995049000000,
0.1655311224705823,-1.3442550768761707,-1.415103775163797,2995054000000,
0.15615180002822612,-1.3419805429086702,-1.4089956202595164,2995059000000,
0.1812319289249759,-1.3402495543812163,-1.4034698523998865,2995064000000,
0.15808639073467562,-1.3645953830819804,-1.3985268565001583,2995069000000,
0.11246633478648335,-1.4601415207723554,-1.3947495353107155,2995074000000,
0.08413685300268965,-1.4511998333886964,-1.392061587539571,2995079000000,
0.10268941952599575,-1.4922321258923759,-1.3902330274042853,2995084000000,
0.05164201644828703,-1.4988066686687953,-1.3899417768728493,2995089000000,
0.06360089774313411,-1.5137787051210918,-1.3906393274140807,2995094000000,
0.07111915683891903,-1.4841925688204411,-1.3906580666595034,2995099000000,
0.06894387699038858,-1.4756601429534049,-1.3898416353252248,2995104000000,
-0.457486410688742,-1.3264943175909554,-1.3928174991505036,2995109000000,
0.5757340469460748,-1.7356614158724428,-1.3960195262975532,2995114000000,
0.14127011157312,-1.5547350960685131,-1.3963901391090225,2995119000000,
-0.011772563616599459,-1.5123352314021514,-1.3955181102762289,2995124000000,
-0.02368892974495998,-1.556516731615526,-1.39392537915413,2995129000000,
-0.0003595632655737363,-1.5392551498626121,-1.391626578660213,2995134000000,
0.06062885432102759,-1.5308444085422974,-1.3898105890599841,2995139000000,
0.0761069681306837,-1.5043289666167423,-1.3876919304844217,2995144000000,
0.05756043453269241,-1.5267230331940929,-1.3852931758679987,2995149000000,
0.08658383817515151,-1.496573214590986,-1.3835454723068803,2995154000000,
-0.9883226060408523,-1.5281302519604525,-1.3849556704115362,2995159000000,
0.18453653828909955,-1.5097229144532127,-1.3885799927090772,2995164000000,
1.0537464913996877,-1.5667567287958928,-1.3901068141685604,2995169000000,
-0.1388996011652724,-1.519438616669889,-1.389414112542629,2995174000000,
-0.014464548473570111,-1.544062427516911,-1.3885656768456498,2995179000000,
0.029882583909496607,-1.5676770722806326,-1.3880172764060232,2995184000000,
0.010047155337301269,-1.5902557521785123,-1.3878511732102754,2995189000000,
0.024492161261495796,-1.591647548358741,-1.3874409117521114,2995194000000,
-0.2875485677609043,-1.5606657720324377,-1.3867126748652066,2995199000000,
0.06170579037621956,-1.4620132151503984,-1.386697453375177,2995204000000,
0.35422263329301507,-1.2934683761816999,-1.3867615257850174,2995209000000,
-0.029008941680873604,-1.6425637591812303,-1.3858682303053704,2995214000000,
0.000204149097462367,-1.590157053001167,-1.3854023455093067,2995219000000,
-0.010773953198846428,-1.582441301295313,-1.3848663494432392,2995224000000,
-0.003989715296767865,-1.6172820631500773,-1.3842376750699361,2995229000000,
0.00833726144511408,-1.6183203618012074,-1.3835533437725416,2995234000000,
0.039289609390232655,-1.6332743331650905,-1.3825637419065882,2995239000000,
-0.001792222878320331,-1.6470058866282438,-1.3817476753236715,2995244000000,
-0.01985598681612153,-1.645176899822563,-1.3808207009565412,2995249000000,
-0.02827634116482787,-1.626422744302877,-1.3798125875631906,2995254000000,
0.0052246629179506805,-1.6288062526900198,-1.3790651837158532,2995259000000,
0.0013453041174326394,-1.695855822111227,-1.3779671622388099,2995264000000,
-0.015601754494522743,-1.6805126561770007,-1.377094362298379,2995269000000,
-0.006419598723991778,-1.6988142316240056,-1.3760071101330258,2995274000000,
-0.01613017138566327,-1.6882918037123513,-1.3754744230638254,2995279000000,
-0.011695540324975138,-1.6831148851996367,-1.3749664982620176,2995284000000,
-0.011780365602288024,-1.6647228527671891,-1.3739097761781935,2995289000000,
-0.0012523206035631174,-1.694515441887079,-1.3734895734985928,2995294000000,
-0.28068247842353433,-1.6509231643575049,-1.372415617259211,2995299000000,
-0.07038895185938909,-1.707473815213235,-1.372715364059413,2995304000000,
-0.022627657876583916,-1.6835002677696815,-1.3718129111111017,2995309000000,
-0.00947354930712406,-1.7208696089008544,-1.371131792636201,2995314000000,
-0.05583464481533779,-1.6880371482956964,-1.3704933491493703,2995319000000,
-0.04273884094465209,-1.7361713083711314,-1.3698311929769553,2995324000000,
-0.029131140423940084,-1.6990691144482541,-1.3699576107183344,2995329000000,
-0.025251618444484026,-1.7074767006842366,-1.3686709758125886,2995334000000,
-0.04641305522018717,-1.688320665739907,-1.3681864936596322,2995339000000,
-0.04943125028731033,-1.732728292914829,-1.3676545214612905,2995344000000,
-0.08352330923376872,-1.7376592556328265,-1.3664101148851122,2995349000000,
-0.0612020546730318,-1.735780312026117,-1.3655979312990099,2995354000000,
-0.01831446747226318,-1.7146190181961,-1.3643333738261796,2995359000000,
-0.06986421290027207,-1.7200858335220655,-1.3639514256758765,2995364000000,
-0.07473879377610769,-1.7312063355422054,-1.3625341178149049,2995369000000,
-0.06411198465749594,-1.7018057739557588,-1.362025060449837,2995374000000,
-0.06820235643342056,-1.7292739096987992,-1.3613119166700398,2995379000000,
-0.06938242955734047,-1.7279117283123764,-1.3605201076564482,2995384000000,
-0.03628053219044053,-1.7126316995484911,-1.3596279345628297,2995389000000,
-0.06491028072331492,-1.7200546785520068,-1.3591786130840382,2995394000000,
-0.06572826323690593,-1.743027133025605,-1.358578123689533,2995399000000,
-0.3674129779793015,-1.7615769332994506,-1.357786675842768,2995404000000,
-0.07003185643357777,-1.7434046015979163,-1.357387525710602,2995409000000,
-0.07245805416147816,-1.725565581123263,-1.3570492532495915,2995414000000,
-0.058832719467612114,-1.7288944924556133,-1.3560029254435852,2995419000000,
-0.10250457960935938,-1.712429952046875,-1.3554837471462193,2995424000000,
-0.07204775708447216,-1.757122396837677,-1.3554402821806846,2995429000000,
-0.11510800031309754,-1.7464223255130573,-1.354043221301565,2995434000000,
-0.08867119502939391,-1.7296613930559017,-1.3535940303918466,2995439000000,
-0.09831323919598493,-1.7341661927476735,-1.3529909622133156,2995444000000,
-0.09751352593455205,-1.7624857443494328,-1.351752997090645,2995449000000,
-0.1003208090607045,-1.7126963534219595,-1.351517266139952,2995454000000,
-0.07015150555094272,-1.7475395043311024,-1.3503697357092312,2995459000000,
-0.13702671881484163,-1.7260957289532581,-1.3494049009274354,2995464000000,
-0.057631875715275775,-1.7316480722308858,-1.3487614494574127,2995469000000,
-0.08648813538281358,-1.7498729774221335,-1.347945832929596,2995474000000,
-0.08798795522783037,-1.6997489825685679,-1.3468293287611994,2995479000000,
-0.11283897668971685,-1.7043779942495823,-1.3463822729452828,2995484000000,
-0.10401154356511254,-1.750716659230193,-1.3456881819666149,2995489000000,
-0.08104323359549787,-1.70931824760216,-1.345440082649829,2995494000000,
-0.07253737154308074,-1.691577434393434,-1.3443825519413486,2995499000000,
-0.3727718067130137,-1.724012597663205,-1.3433591595139835,2995504000000,
-0.10477554268202109,-1.7137037081735618,-1.3435185176641289,2995509000000,
-0.08932213190001038,-1.6989951719004466,-1.3428781941797965,2995514000000,
-0.13332903216047853,-1.7068909500928489,-1.342468271511891,2995519000000,
-0.11270213103472262,-1.7352906863519106,-1.3410068392361694,2995524000000,
-0.10977867328709066,-1.6922783230201779,-1.3405405283025817,2995529000000,
-0.1177545602888476,-1.7134853088919062,-1.3401508771840425,2995534000000,
-0.12211367096199002,-1.711438788391141,-1.3395627244021406,2995539000000,
-0.09394670952042297,-1.6818735506783138,-1.3386541478241625,2995544000000,
-0.10377636122572816,-1.6802808451237288,-1.3377031527986065,2995549000000,
-0.11340393394039705,-1.7073636579514986,-1.3370468895173926,2995554000000,
-0.11584522247789103,-1.6831114018060391,-1.3365831395891805,2995559000000,
-0.12814182883837896,-1.6678666729866043,-1.3359529833671002,2995564000000,
-0.1332803267280496,-1.6345036521217975,-1.3348587933839837,2995569000000,
-0.11397273392176212,-1.652331034041539,-1.3342648307963638,2995574000000,
-0.11958353901718143,-1.6933224258362887,-1.3334471274255766,2995579000000,
-0.11149703493478569,-1.6347597366554565,-1.3330654645999604,2995584000000,
-0.12911279743170515,-1.6282395182763088,-1.3320275526987762,2995589000000,
-0.11493985244043092,-1.6385275113827735,-1.3318180154425014,2995594000000,
-0.14613573064090624,-1.611758391607123,-1.3310034140453293,2995599000000,
-0.289256910140845,-1.6411302969085646,-1.3299026609909512,2995604000000,
-0.24425065109919936,-1.6121750565736688,-1.3294446445976795,2995609000000,
-0.12184441655235516,-1.5758058199911287,-1.3286597313937005,2995614000000,
-0.13539510613125333,-1.5971701221839758,-1.3280211683652388,2995619000000,
-0.12815055861844254,-1.6010333124265317,-1.326965918327029,2995624000000,
-0.15668246042882328,-1.610443445468438,-1.3265327632278676,2995629000000,
-0.10321861194462295,-1.5742784993147791,-1.3257589376546282,2995634000000,
-0.11858333821598721,-1.5767463008523968,-1.325313142349019,2995639000000,
-0.14542163483011572,-1.5512913449197305,-1.324360753256603,2995644000000,
-0.12101946080178819,-1.556167310657147,-1.3236379328022776,2995649000000,
-0.1107442618260709,-1.5659384912261018,-1.3227104740581193,2995654000000,
-0.17724141790867243,-1.5539405163904028,-1.3226219474254328,2995659000000,
-0.1472672639029011,-1.5384849395185962,-1.3222098778936828,2995664000000,
-0.1364586370609484,-1.5219002202266254,-1.3210677802713708,2995669000000,
-0.15668839689426073,-1.5330326861437542,-1.3208315713305114,2995674000000,
-1.0123953753408839,-1.571398647955511,-1.3240693330950468,2995679000000,
-0.1104649843275972,-1.4922427145088388,-1.330218798435984,2995684000000,
0.061777505663941926,-1.3595184340216135,-1.3364260831675867,2995689000000,
-0.361093500432135,-1.584412815705881,-1.3425447326429705,2995694000000,
-0.3717433478170402,-1.6296753244853486,-1.3504229642027588,2995699000000,
-0.22971535342093882,-1.5399256466209437,-1.3597128733177188,2995704000000,
0.18744449706799293,-1.2683791794588934,-1.367860902810888,2995709000000,
0.48255053028694656,-1.6905858901387647,-1.3700332829236286,2995714000000,
0.03623671138806207,-1.5771435145734294,-1.3658217829700467,2995719000000,
-0.08398818464381168,-1.5268062099415007,-1.3563684401964489,2995724000000,
-0.13402066169905416,-1.44947920528212,-1.343377018856333,2995729000000,
-0.1657948857287904,-1.4680943708994376,-1.3265064844767274,2995734000000,
-0.16378637644826446,-1.459130088383091,-1.30820274118444,2995739000000,
-0.19067059350900858,-1.3917365442776917,-1.2901328408757318,2995744000000,
-0.18751899144374237,-1.3774042047483386,-1.2724078213346048,2995749000000,
-0.20801754292050378,-1.3477067748334401,-1.2568885101157996,2995754000000,
-0.25769113562045076,-1.3503744191945348,-1.2440008496384418,2995759000000,
-0.17840466754075163,-1.321648740793183,-1.2347493784846488,2995764000000,
-0.20085909845855515,-1.2956615388276957,-1.2284801442560804,2995769000000,
-0.19710668108979568,-1.2934953361822024,-1.227175467761628,2995774000000,
-0.22872093896397572,-1.2921636416436588,-1.2282894505517894,2995779000000,
-0.19622018978577474,-1.2695710967180938,-1.232838088461987,2995784000000,
-0.23269368456595152,-1.2606306511651717,-1.240227791993654,2995789000000,
-0.18542437047273508,-1.256932373481547,-1.249186177415043,2995794000000,
-0.16688570169939076,-1.25500169096888,-1.2620069323408512,2995799000000,
-0.1758415038205647,-1.3022105167118427,-1.2703279161594299,2995804000000,
-0.22560754143948156,-1.2745055139428019,-1.2800407676068823,2995809000000,
-0.17854864389625158,-1.2856993457610322,-1.2878321477256585,2995814000000,
-0.20411162545195954,-1.3200526103929693,-1.2929114844844085,2995819000000,
-0.20953943122989765,-1.301644445159859,-1.2960987504024768,2995824000000,
-0.20795824965321177,-1.292278992486927,-1.2967175010966738,2995829000000,
-0.22417670462008843,-1.2827657206926881,-1.2948623473676633,2995834000000,
-0.19078823514979215,-1.2627584673258139,-1.2915069921604034,2995839000000,
-0.2206965236416043,-1.2552879330452245,-1.2864858577725067,2995844000000,
-0.20255871432261272,-1.269124822951552,-1.2810964236331734,2995849000000,
-0.20858255058906983,-1.2399369418554198,-1.2742071009047815,2995854000000,
-0.20212883291475614,-1.2416930784032625,-1.2675512728758356,2995859000000,
-0.2078455504162711,-1.2216655157528473,-1.2609624240131363,2995864000000,
-0.19643945112579939,-1.2054177011995548,-1.2556430728466854,2995869000000,
-0.13626357998900546,-1.2908246559419938,-1.2514755760107148,2995874000000,
0.005704935777036208,-1.3255966447093972,-1.2514462165608629,2995879000000,
-0.01142135076853585,-1.2340882970071032,-1.2559255790981585,2995884000000,
-0.025166792898372647,-1.2055987872191505,-1.263213220703333,2995889000000,
-0.9153492737515315,-0.8571210809864616,-1.2679772935292768,2995894000000,
-0.35426159362557863,-1.1617555225908434,-1.2692535027725464,2995899000000,
-0.1915349991833169,-1.2453240977797868,-1.2683924180502537,2995904000000,
-0.19164098392352436,-1.225363676079333,-1.2670562417896838,2995909000000,
-0.1774390265010418,-1.1617031114294676,-1.2645094722005181,2995914000000,
-0.22763500500924663,-1.1584384331106548,-1.2617804417757952,2995919000000,
-0.25033743736364583,-1.1632987335156737,-1.2589537274537943,2995924000000,
-0.25138754600500407,-1.1421775574749027,-1.256391548891495,2995929000000,
-0.2398767692737353,-1.1523608217806436,-1.2544572969607724,2995934000000,
-0.24699964137798786,-1.1461654152887475,-1.252880998711412,2995939000000,
-0.2796529242051655,-1.1559708239787314,-1.2508756436538906,2995944000000,
-0.2574868459763049,-1.1476684467907892,-1.2493865860194024,2995949000000,
-0.2590826805579498,-1.1282965306690065,-1.2479398700472464,2995954000000,
-0.26781416644074857,-1.1567331569379342,-1.2468503736213652,2995959000000,
0.22216464769773409,-1.1149988384962142,-1.2458897983552029,2995964000000,
-0.15449461466908831,-1.1552310819239708,-1.2484607172198472,2995969000000,
-0.30036004159283897,-1.1417739313741506,-1.250475095802095,2995974000000,
-0.26357861644012665,-1.085992031348733,-1.2527175515042541,2995979000000,
-0.24091141301144234,-1.106270621536849,-1.2552619770229183,2995984000000,
-0.25055869027305006,-1.1195788151761965,-1.2568473022814532,2995989000000,
-0.2515099496354777,-1.091586198166753,-1.258201574299027,2995994000000,
-0.2569140384690388,-1.121606699193859,-1.260697488616952,2995999000000,
-0.2704522215095669,-1.105542779192336,-1.2623022869413667,2996004000000,
-0.245682903715242,-1.1186116656662903,-1.2641128391266934,2996009000000,
-0.18160977878689094,-1.1040612501183464,-1.2647637815006052,2996014000000,
-0.26736999798226724,-1.12881782616952,-1.2655489020110855,2996019000000,
-0.2643655886623333,-1.1372214996755305,-1.2657859665925166,2996024000000,
-0.2577460690184455,-1.1180918752247186,-1.2662005592009073,2996029000000,
-0.29052406488412147,-1.139914698323028,-1.267003329504206,2996034000000,
-0.2718425576534238,-1.1400500648512069,-1.2672023627966615,2996039000000,
-0.30720257775377585,-1.107693105738229,-1.2676349815026424,2996044000000,
-0.4809240351003227,-1.10985219215683,-1.267976857784053,2996049000000,
0.01609159190035933,-1.1105393176142428,-1.2687854862426624,2996054000000,
-0.36048091181017894,-1.1241230036588552,-1.2705355795556745,2996059000000,
