acc_x, acc_y, angular_z, stamp, 
-0.024220163656420227,-1.129348789164586,-1.0006663268085254,1791620000000,
0.08179591631975425,-1.0332312426892785,-0.9991775284197193,1791625000000,
-0.038386954056685726,-1.2129918800459332,-0.997605234302508,1791630000000,
-0.06263227962771666,-1.117799258388984,-0.9957510654760475,1791635000000,
0.07571238242387762,-1.0139957385304474,-0.994658493090813,1791640000000,
-0.11646627672773908,-1.1532242664763004,-0.9935877887308242,1791645000000,
0.029548518274159913,-1.1490780143104822,-0.9923181228352623,1791650000000,
0.057860714200505925,-1.0589103586113775,-0.9914033432349334,1791655000000,
-0.12944808571223587,-1.1470831779035437,-0.9906879824630556,1791660000000,
0.01828051551847091,-1.126463876196896,-0.98955110160719,1791665000000,
0.1646540636361313,-1.046358455092979,-0.9896976971417126,1791670000000,
-0.10610921730008001,-1.1591834404689287,-0.9888742343297137,1791675000000,
-0.04843286919849295,-1.1158345690976952,-0.9882277062807889,1791680000000,
0.13749147797051506,-1.0155631551689381,-0.987901561184748,1791685000000,
-0.09057754777923899,-1.1466755184021389,-0.9873231454419882,1791690000000,
-0.04431264459680402,-1.1029252662321862,-0.9862318611833591,1791695000000,
0.13644553794568584,-1.0359863477693514,-0.9864953440436186,1791700000000,
-0.07410723754292989,-1.176354789189777,-0.9862387961138731,1791705000000,
-0.04678245618588584,-1.1039044496605126,-0.985411147811525,1791710000000,
0.1541626004831428,-1.0631805784746273,-0.9859176708941945,1791715000000,
-0.11175332674875868,-1.190155032988426,-0.9851700363918205,1791720000000,
-0.02805744184096794,-1.0934991407438666,-0.98465042698933,1791725000000,
0.07615856877577085,-1.0369428488366865,-0.9843954062779576,1791730000000,
-0.07340496536506062,-1.1309920131994449,-0.9843817790609702,1791735000000,
0.001181858770218207,-1.0758560956808516,-0.9831155810263221,1791740000000,
0.06784021930878414,-1.0280751764291827,-0.9832763058454403,1791745000000,
-0.10768749638544756,-1.1485581420914661,-0.9828979005578595,1791750000000,
0.01346008301585267,-1.0791333156273497,-0.9826930791031244,1791755000000,
0.0508395734423482,-1.036228914848778,-0.9825665819471439,1791760000000,
-0.07054858077669753,-1.176865972609088,-0.9818933651739873,1791765000000,
-0.00988770231490122,-1.0881614997996982,-0.9817776479015705,1791770000000,
0.07403549182974745,-1.0101843989245776,-0.9824453273554562,1791775000000,
-0.05269965823137733,-1.1714625009819215,-0.9821630263780926,1791780000000,
-0.0335795570792643,-1.0863299921733207,-0.9815780790774947,1791785000000,
0.06917582311348129,-0.9922464764785751,-0.9820115860503932,1791790000000,
-0.003245579072805411,-1.14377562764083,-0.982463589815794,1791795000000,
-0.06670212379301699,-1.059109325710119,-0.9814702825923901,1791800000000,
0.037705817234037,-1.0317730937193574,-0.9817627891401995,1791805000000,
-0.021639857022079496,-1.1766068460992112,-0.9815425261119284,1791810000000,
-0.045409494808034606,-1.0802611945971883,-0.9810098872875097,1791815000000,
0.04277750620674396,-0.9679915044247805,-0.9809420094310627,1791820000000,
0.0018046713895391148,-1.1948323538280798,-0.9809077562149922,1791825000000,
-0.08221568682860045,-1.0889308190191922,-0.9803315017612797,1791830000000,
0.051970900316750945,-1.003805758899937,-0.9808408787906446,1791835000000,
0.006509124131867886,-1.2082445995194868,-0.9805902061866407,1791840000000,
-0.051400800353101246,-1.105358577446543,-0.9796103185487487,1791845000000,
0.11819516861004888,-1.0224868576534099,-0.9804198043303871,1791850000000,
-0.11471673568823741,-1.2157676382748388,-0.9799597296386925,1791855000000,
0.04197623634080744,-0.9854888525161929,-0.9803273942486176,1791860000000,
-0.05019245814824676,-1.1957713787387871,-0.9803636922345349,1791865000000,
0.008390687374719586,-1.1210854528950986,-0.9800875018864301,1791870000000,
0.05634442829290274,-0.9662336420219623,-0.9806880798487448,1791875000000,
-0.018688765836612057,-1.2401361534992348,-0.9808998697387199,1791880000000,
-0.04264596664477252,-1.059472749111149,-0.9811275246983847,1791885000000,
0.05055507534895934,-1.0815813802854322,-0.9819119141854032,1791890000000,
-0.0027396776916310994,-1.0590147178937683,-0.9828192273927238,1791895000000,
-0.05706602275936083,-1.0622373411069326,-0.9835465554969077,1791900000000,
0.02055216879723555,-1.1940855144898017,-0.9841088642359209,1791905000000,
0.007121986120286908,-0.888845389265848,-0.9844965498381313,1791910000000,
-0.0393223454435528,-1.1251355535075678,-0.9854026661406825,1791915000000,
0.020210533728069198,-1.2659099447434774,-0.9854226414712478,1791920000000,
-0.03336451131517236,-0.9249312931443527,-0.9859815595934931,1791925000000,
-0.024802989798204972,-1.1323292985713072,-0.9863801168854188,1791930000000,
0.023448501900304498,-1.1946037144557502,-0.986713627679533,1791935000000,
-0.054610813827877934,-0.9951536969688877,-0.9867752604371283,1791940000000,
-0.005111795121727361,-1.1618644076309241,-0.9872231704968808,1791945000000,
0.020374675113859847,-1.19306189177385,-0.9870138621991891,1791950000000,
0.03429459066667278,-0.9739427122455825,-0.987160618200725,1791955000000,
-0.09310644394102602,-1.1381247397338132,-0.9875011189766341,1791960000000,
0.05487653006764742,-1.1842982288468624,-0.9872592943113352,1791965000000,
-0.06581760618689002,-1.015463091210996,-0.9876892744641746,1791970000000,
0.049107767222405,-1.1954447028370356,-0.9885002926778079,1791975000000,
0.05212266642984009,-1.108575518844465,-0.9886124600998794,1791980000000,
-0.08866671262202898,-1.0118684124978023,-0.988792534681177,1791985000000,
-0.018867447198909662,-1.2143686898584152,-0.9889526480189803,1791990000000,
-0.044073799060781266,-1.1167756098872117,-0.9889528596699773,1791995000000,
-0.03778602984400408,-1.0296753722293392,-0.9892752312377794,1792000000000,
0.07346275842966801,-1.1691798251758776,-0.989744120468352,1792005000000,
-0.14490756133685295,-0.970400342216789,-0.9923152815251517,1792010000000,
0.11584159258985055,-1.1035791909958745,-0.9932967807817699,1792015000000,
-0.6915518445753359,-1.2236569622072841,-0.9959875145959467,1792020000000,
-0.22480060260660187,-0.9643798353075986,-1.0001241461687218,1792025000000,
0.6696077733401371,-1.174242049026367,-1.003621113593219,1792030000000,
-0.7639571748322501,-1.0884653919936362,-1.0074112115328226,1792035000000,
-0.051309284334706926,-1.1394430704214542,-1.011596788752971,1792040000000,
0.652463943535251,-1.1820793187157854,-1.016269684687909,1792045000000,
-0.6312927786081647,-1.1149736171952256,-1.0182314822576348,1792050000000,
-0.03775005702584576,-1.129281077596933,-1.021905383195467,1792055000000,
-0.15986155389547188,-1.1530471143814405,-1.02672465851371,1792060000000,
0.8652343162268649,-1.220118930187631,-1.0280954867636292,1792065000000,
-0.859269302256632,-1.134577501272252,-1.0301387497926202,1792070000000,
-0.028035247216281253,-1.144251046264731,-1.0340168998220984,1792075000000,
0.8198859020768411,-1.223959184367132,-1.0355230967602949,1792080000000,
-0.86902236296438,-1.1268109518746303,-1.0369827798279856,1792085000000,
0.02378563132169069,-1.1380089703130378,-1.0394969205253923,1792090000000,
0.9187615974049509,-1.2340569001179418,-1.0392735480537618,1792095000000,
-0.9953411061234353,-1.1237287987382876,-1.0404886312425405,1792100000000,
0.007863760207455961,-1.1544662230398763,-1.0433276757687557,1792105000000,
0.9813443596715238,-1.24241083875191,-1.0417096151968086,1792110000000,
-1.0036441609663105,-1.0996516126257563,-1.0423361215850109,1792115000000,
0.8427951758985692,-1.2167835815142494,-1.0449819486082543,1792120000000,
0.17441073229406998,-1.1685496412216863,-1.04184697910602,1792125000000,
-0.9843171293159247,-1.0984761489025117,-1.0431492968197713,1792130000000,
0.8889930737917194,-1.2340633315783953,-1.0428915876589382,1792135000000,
-0.7925819961129026,-1.1059877097989779,-1.0404918842731583,1792140000000,
-0.18708632767078714,-1.1367011571829762,-1.0430066366243935,1792145000000,
0.8792247201984138,-1.2391102366878046,-1.041669419934557,1792150000000,
-0.6361942938751073,-1.1675186362642291,-1.039581789376086,1792155000000,
0.7654831881083838,-1.0961273131553235,-1.0379433711237747,1792160000000,
-0.10036552568655145,-1.174756198407947,-1.0337748662348873,1792165000000,
0.05604654055772187,-1.183384721059105,-1.0294318587305122,1792170000000,
-0.009434175050294303,-1.1370413980848393,-1.0263524425670243,1792175000000,
-0.11424486279626628,-1.1131839935326016,-1.0218727432713224,1792180000000,
0.1060741926709516,-1.1788789685178584,-1.0186341670611794,1792185000000,
0.06986606940537618,-1.09872957108147,-1.0152771761154182,1792190000000,
-0.04596491989611011,-1.0538757696851262,-1.0120920687842505,1792195000000,
0.08510151758248716,-1.1975164180420608,-1.0095617202456506,1792200000000,
-0.07195912599098697,-1.0700540968425416,-1.0079026040767634,1792205000000,
0.007822203015938705,-1.139068855837532,-1.0054624335032194,1792210000000,
0.08513194576645619,-1.1995002600835658,-1.004058636821778,1792215000000,
-0.09166982051212288,-1.0509734812609555,-1.002473165345227,1792220000000,
-0.01909821319241416,-1.157792585964515,-1.0010811447620556,1792225000000,
0.059266355120043426,-1.1651584843802913,-0.9997844797943108,1792230000000,
-0.09181247220723218,-1.0657545884020883,-0.9986971780508691,1792235000000,
0.016612726190013555,-1.211167728177933,-0.998591579520684,1792240000000,
0.049939393160324405,-1.1468710195588678,-0.9972913247004693,1792245000000,
-0.059343139749000975,-1.0143326860582644,-0.9965109968875224,1792250000000,
-0.08449601426381753,-1.1464712355518716,-0.996275682603157,1792255000000,
0.1115272405020554,-1.1854755697221777,-0.9952678754224435,1792260000000,
-0.044046221995400155,-1.0331436627928823,-0.9947411036176073,1792265000000,
-0.00819275084777057,-1.1228937449580747,-0.9942498523530592,1792270000000,
0.0038977039186870316,-1.1501232607890943,-0.9936342069340989,1792275000000,
-0.09632532272102369,-1.0014433903918132,-0.9928345075809387,1792280000000,
-0.014548841823350846,-1.117272866372837,-0.9921330330079834,1792285000000,
0.047659639947788705,-1.1515037257084941,-0.991555928418005,1792290000000,
0.0007378677468899697,-0.9963562897987989,-0.9908012217391442,1792295000000,
0.01910478500486616,-1.20130541288135,-0.990723914599373,1792300000000,
0.007144643907044605,-1.0980466932475428,-0.9898185836871727,1792305000000,
-0.07782608527969334,-1.114085998389984,-0.9898817107191474,1792310000000,
0.07206071433466191,-1.1715687208254773,-0.9892046746276055,1792315000000,
-0.04164179332776418,-1.0381685360902568,-0.9883692545972479,1792320000000,
-0.047259206465107166,-1.122793355111129,-0.9885406590451246,1792325000000,
0.056849420081131134,-1.2069897771780722,-0.9882371848075928,1792330000000,
0.10747941001215024,-1.0437626649537146,-0.9872727360371591,1792335000000,
-0.15452655275209853,-1.1358896643109528,-0.9875767585446583,1792340000000,
0.04425291341527494,-1.142824259444354,-0.9877731179145864,1792345000000,
0.02191578752177006,-1.047922695885789,-0.9871237583432265,1792350000000,
-0.10574987303877866,-1.1002609658924616,-0.9876727306753267,1792355000000,
0.009336728413023077,-1.1602849607647792,-0.987649131419953,1792360000000,
0.03683745939017038,-1.0679593030344556,-0.9880577929490072,1792365000000,
-0.14963812456702513,-1.0793707544782398,-0.9879094971765571,1792370000000,
0.06642123982682521,-1.1654807221858448,-0.9877659337766319,1792375000000,
0.06628175991390256,-1.1127234320940964,-0.9874390989395705,1792380000000,
-0.11959492402163008,-1.103289936033198,-0.9879202111700315,1792385000000,
0.08071569496414523,-1.1381195441804888,-0.9879553616587265,1792390000000,
0.03429671846555512,-1.110849805728607,-0.9875860841870846,1792395000000,
-0.13699496986778636,-1.0818889577208726,-0.9878752320540005,1792400000000,
0.11589129810772289,-1.1747677868623854,-0.987833085361248,1792405000000,
0.13007524786681315,-1.046907300729853,-0.987804958573781,1792410000000,
-0.22412797482041785,-1.1163330277102181,-0.987390933547986,1792415000000,
-0.6073696633229632,-1.1190076287166182,-0.9884266864141069,1792420000000,
0.433923355882991,-1.0513544286645438,-0.9911502107915265,1792425000000,
0.118669888196444,-1.1350518471739273,-0.9931187927963184,1792430000000,
-0.742386691338414,-1.065357117632675,-0.996285013548418,1792435000000,
0.09950479621719902,-1.0667664465248348,-1.0003355788265778,1792440000000,
0.21113469795864115,-1.1797080960730575,-1.0060857203053137,1792445000000,
0.42444014237880096,-1.1963286329807572,-1.0089724532815005,1792450000000,
-0.575161656569441,-1.0955560389302812,-1.0135153829280126,1792455000000,
-0.08463146540270869,-1.1395330797558554,-1.0178171627979293,1792460000000,
0.81983584186708,-1.181644488646052,-1.0193627278962047,1792465000000,
-0.8333026100610399,-1.1168583032899153,-1.0217488053537784,1792470000000,
-0.06625171684489893,-1.1489719954802318,-1.025719456023481,1792475000000,
0.8644095138584823,-1.157688515965408,-1.0268484594509355,1792480000000,
-0.9079581169905241,-1.1259661030872685,-1.0280469595371566,1792485000000,
-0.0001473006141083262,-1.1359922383594974,-1.0307723008763465,1792490000000,
0.9295785743053732,-1.114930999925942,-1.030941736059732,1792495000000,
-1.014354464744414,-1.1834385667047214,-1.031318371745483,1792500000000,
0.021612150896766706,-1.1675543513937172,-1.0339975332943763,1792505000000,
0.81348177153695,-1.1387727733674902,-1.0320002993748034,1792510000000,
-1.2533073155452668,-1.168236774424239,-1.0322462132200363,1792515000000,
0.027588424656683222,-1.1364596506608124,-1.0342639299710676,1792520000000,
0.9051270871630295,-1.1126992192598295,-1.0328203419420414,1792525000000,
-0.9299606724377116,-1.16847332439396,-1.0319598819683018,1792530000000,
0.0005244338684229667,-1.1345193431205163,-1.0342642375463942,1792535000000,
0.9256325237418701,-1.2088074963471565,-1.032634968231664,1792540000000,
-0.7891375610284644,-1.1290076841186163,-1.0308962041050393,1792545000000,
-0.17401032420093332,-1.1086512389070793,-1.033115831373396,1792550000000,
0.9970667482115327,-1.204337066228312,-1.0310713293687104,1792555000000,
-0.022283830102957203,-1.1846674498972403,-1.0280227767495724,1792560000000,
-0.22436345636333116,-1.120544907597277,-1.0283880853016651,1792565000000,
0.1374880365781201,-1.2118146946562298,-1.025339927569979,1792570000000,
-0.003673033579249127,-1.1194106258115526,-1.021983383336954,1792576000000,
0.1339665463269584,-1.1241400588189692,-1.0197865562656,1792581000000,
-0.060863048917506775,-1.0283608291455464,-1.0166665574735985,1792586000000,
-0.039993477538372166,-1.1039579754470095,-1.0132767312149258,1792591000000,
0.05088287986066993,-1.2314935239969276,-1.0110900231642612,1792596000000,
0.05151241238619408,-1.0500419504270748,-1.0087985474310288,1792601000000,
-0.03255087109216012,-1.161742197360297,-1.0064517445576628,1792606000000,
0.014065709670510884,-1.1487014941137945,-1.00484112679363,1792611000000,
0.11830896140021552,-1.114361278947332,-1.0024552146686725,1792616000000,
0.016245082335757267,-1.0612858906712417,-1.001330863788634,1792621000000,
-0.06662897839518772,-1.146974515623985,-0.9994675598116062,1792626000000,
0.17569580690439465,-1.0901733533049014,-0.9984039224719119,1792631000000,
-0.13784492432681647,-1.033592272148497,-0.9964679314000555,1792636000000,
-0.07985983314567936,-1.1837346357435787,-0.995390439490771,1792641000000,
0.14760727050309466,-1.1283571262098313,-0.9941060985101242,1792646000000,
-0.14248544908048466,-1.0991931269017092,-0.9934771707437705,1792651000000,
-0.06109357608101343,-1.1059785310090815,-0.9932229386713128,1792656000000,
0.09627713384123507,-1.1162475979849207,-0.9927841348962683,1792661000000,
-0.04969326303883732,-1.1299851270490577,-0.9916794722607976,1792666000000,
-0.03771827778158861,-1.0631880280733437,-0.9911206027419893,1792671000000,
0.09917801944923366,-1.0446617503727538,-0.9903000128185694,1792676000000,
-0.0370062846768506,-1.162267823958822,-0.9907830605910235,1792681000000,
-0.10683376027900712,-1.09471985257384,-0.9902218080737735,1792686000000,
0.1352078259349467,-1.0618575568680753,-0.9892980281944678,1792691000000,
-0.04886190856558923,-1.1548307119495198,-0.9887618174285145,1792696000000,
-0.07886539564230514,-1.0928580392657363,-0.9886253852876792,1792701000000,
0.11574981473708806,-1.1165502679679966,-0.988091966252028,1792706000000,
-0.10974044870160887,-1.098982302771023,-0.9877440128625947,1792711000000,
0.022064156971847555,-1.1131698600050193,-0.9879672581962627,1792716000000,
-0.016555375998096835,-1.1450693533110246,-0.9874746931268596,1792721000000,
-0.054097507938801914,-1.0257800041065328,-0.9870539139635278,1792726000000,
0.07076147528957007,-1.0965229761313866,-0.9866278802025992,1792731000000,
-0.08462982728262404,-1.087852703157655,-0.9869367913928645,1792736000000,
-0.01924346282024745,-1.086810346518135,-0.9865535108556049,1792741000000,
0.12500978844434515,-1.115859262312918,-0.9866692841573206,1792746000000,
-0.09869714727629442,-1.084721957977878,-0.9865334275279832,1792751000000,
-0.007596071777099603,-1.1141636630281944,-0.9868150908468722,1792756000000,
0.1196660004737762,-1.0576383306101762,-0.9864365031241028,1792761000000,
-0.08678995856174132,-1.1689384185909593,-0.9865159515038201,1792766000000,
-0.07356910973475035,-1.110316024826893,-0.9866912151821401,1792771000000,
0.10711377559159058,-1.0424898774245446,-0.9863549620918611,1792776000000,
-0.0796852558480188,-1.164994520212189,-0.985984699153811,1792781000000,
-0.045261258096682966,-1.0970411219332763,-0.9863162159963136,1792786000000,
0.10653144641883092,-1.0429606485760288,-0.9857363422418485,1792791000000,
-0.0819457905430295,-1.1426635382562211,-0.9859317366154647,1792796000000,
-0.051490439920432125,-1.0939588592225813,-0.9861433297258421,1792801000000,
0.13712637949820847,-1.0264957931606973,-0.9861153609679209,1792806000000,
-0.11916810547750184,-1.2022508255012934,-0.9858410886023345,1792811000000,
0.0030388378880147706,-1.0815801708170734,-0.9858619840229703,1792816000000,
0.08987763729549524,-1.0707163345681046,-0.9861023697027157,1792821000000,
0.0008939307459413341,-1.15992334756613,-0.9859318586114181,1792826000000,
-0.09104707907321548,-1.0242011689934527,-0.985808209114215,1792831000000,
0.08185301090957754,-1.0933219604258466,-0.9861839011771987,1792836000000,
0.012934575287746646,-1.0859410157585752,-0.9861058272771283,1792841000000,
-0.15279760275323306,-1.1330192127347618,-0.9861909829446373,1792846000000,
0.06348862867894317,-1.0645155080484885,-0.985895299922274,1792851000000,
0.0335446616676402,-1.0549940413176624,-0.9860231776072802,1792856000000,
-0.11723493455140144,-1.1867040618975992,-0.9855144725921524,1792861000000,
0.04884285624847479,-1.0957188446678405,-0.9855802044333339,1792866000000,
0.025336617596923832,-1.0368784411650969,-0.9857968528182129,1792871000000,
-0.037115156560755355,-1.1812384453901579,-0.9851549177562284,1792876000000,
-0.09283159657740693,-1.120886844281515,-0.9854354653683983,1792881000000,
0.07077640954582883,-1.0999967285135133,-0.9847846889886457,1792886000000,
-0.04444234780875136,-1.1706952831393937,-0.9846083541649981,1792891000000,
-0.05760220037787259,-1.0551235323759562,-0.9849548154217518,1792896000000,
-0.6892014850472097,-1.029592500517539,-0.987046041354636,1792901000000,
0.49117245063194653,-1.226529080631882,-0.9900132623177003,1792906000000,
0.06871452381169947,-1.0808875929086286,-0.9913515846752435,1792911000000,
-0.7395538611287117,-1.0880037464755108,-0.9931301742342931,1792916000000,
0.03439275355142685,-1.1142989375379615,-0.9969054295722745,1792921000000,
0.45828448355620166,-1.3028128279903795,-1.001971808048792,1792926000000,
0.22879079944108863,-1.0156243495326347,-1.0030190761221505,1792931000000,
-0.789357153560985,-1.044075744261869,-1.0064135289112,1792936000000,
0.5063974511322503,-1.223984911744448,-1.0100309261233353,1792941000000,
0.19684004083141748,-1.0581110891706027,-1.010642626992149,1792946000000,
-0.8382856389204608,-1.0463586610499227,-1.0129133045497332,1792951000000,
0.7536513303710195,-1.1756952497295614,-1.0150499279909597,1792956000000,
0.08242986337948491,-1.0154438325506943,-1.0140768528705524,1792961000000,
-0.6239416192789345,-1.1276898455603528,-1.0171474155218276,1792966000000,
0.6650670835201513,-1.1797475333042362,-1.019406839835931,1792971000000,
0.09657961768970799,-1.1043463658004677,-1.0180103887706944,1792976000000,
-0.8756100335694422,-1.1237627474952423,-1.0203303990668688,1792981000000,
0.6643051587631519,-1.1717100461365082,-1.0221995878029184,1792986000000,
0.08178883860989593,-1.0838078629398589,-1.0212432937211917,1792991000000,
-0.552832105637521,-1.1495878739725842,-1.0227216009096907,1792996000000,
0.9436836895534247,-1.0836035109644044,-1.022723766140456,1793001000000,
0.06451833130452148,-1.1649252981796983,-1.0211662376984145,1793006000000,
-0.8812813627394391,-1.183672921278497,-1.0233596742948972,1793011000000,
0.8082193313167414,-1.0337388241924126,-1.0228033079866623,1793016000000,
0.06414980865267589,-1.2458959446502518,-1.0213580267232847,1793021000000,
-0.7280947368289202,-1.1332652877976879,-1.0229575837111893,1793026000000,
0.861731565947031,-1.1261604544747172,-1.0209992008368984,1793031000000,
-0.005657731057998208,-1.145350042615252,-1.0185086950150466,1793036000000,
0.08059795454826109,-1.1319732254308246,-1.0159239669706643,1793041000000,
-0.0017201149468821925,-1.0666048807082462,-1.0140045228430001,1793046000000,
-0.19934404288299848,-1.1355513348771877,-1.010841031834987,1793051000000,
0.046392352285383354,-1.2180981466265497,-1.008373614459803,1793056000000,
0.13916835203882358,-1.0647764758465716,-1.0063872792553736,1793061000000,
-0.10086945991655288,-1.1453974445858806,-1.0038570543434582,1793066000000,
0.0032038793706380833,-1.131411046853732,-1.0014280247163923,1793071000000,
0.10655134738115858,-1.052909461191033,-1.0000329884178722,1793076000000,
-0.06457846933735052,-1.186300710475179,-0.9978465707531908,1793081000000,
-0.030792953754900182,-1.0926145426567253,-0.995870836315521,1793086000000,
0.08970362345482069,-1.090531361881563,-0.9946249428173705,1793091000000,
-0.06230753865045646,-1.117849249624787,-0.9938869120777316,1793096000000,
-0.041357147830777506,-1.0851503779949687,-0.9923563606838229,1793101000000,
0.09452048959481142,-1.1038906788935317,-0.9909531460665436,1793106000000,
-0.042043615681832035,-1.159338205731257,-0.9908274278476076,1793111000000,
-0.0635845471972178,-1.0489991292471808,-0.9896723888823512,1793116000000,
0.07600869912337047,-1.0974405028200878,-0.9892563688964572,1793121000000,
-0.06826153883373459,-1.1567045973244996,-0.9887223236452615,1793126000000,
-0.009873679781661735,-1.1079595023399682,-0.988015532603295,1793131000000,
0.07501780218772947,-1.0310510036915022,-0.9881835770212355,1793136000000,
-0.06261190695998888,-1.2183245204043918,-0.9875562562717484,1793141000000,
-0.06824540807070305,-1.0714212457842123,-0.986965491596381,1793146000000,
0.1286204971266007,-1.0071600238200973,-0.9871265687601614,1793151000000,
-0.023785627174142954,-1.1825024404389775,-0.9862113141956806,1793156000000,
-0.06822172924827727,-1.0828675412515893,-0.9854345016353766,1793161000000,
0.11162344172432472,-1.0381359361897915,-0.985308594133176,1793166000000,
-0.06167347870052934,-1.1873158429412465,-0.9847721823303803,1793171000000,
-0.02957400925283779,-1.0610854214708179,-0.9837457072208002,1793176000000,
0.08974343181523514,-1.083012144097837,-0.9839376107129435,1793184000000,
-0.09965905273547612,-1.1402884745453008,-0.983701096725538,1793189000000,
-0.03670280440103714,-1.0846636726340182,-0.982728951943518,1793194000000,
0.10409813623935876,-1.0067575225177188,-0.9828788029663296,1793199000000,
-0.06414802567576303,-1.139866051718961,-0.9822669162967805,1793205000000,
0.05262967328379156,-1.0442571289195113,-0.9820299467382936,1793210000000,
0.020119864080617663,-1.1678718635522172,-0.9823472934008274,1793215000000,
-0.14162447231208036,-1.0703671133386705,-0.9817418214155008,1793220000000,
0.0663325816918981,-1.04887691983316,-0.981744407029445,1793226000000,
-0.0013091446952143392,-1.1870314080553994,-0.9821435600304921,1793231000000,
-0.06800436333456807,-1.0801227937087947,-0.9819153394161237,1793236000000,
-0.059560456291077216,-1.050960342883542,-0.9813866692190254,1793241000000,
0.08368004074022305,-1.05554437773331,-0.9818784139743714,1793246000000,
-0.05544635010802292,-1.1832419599315263,-0.9813896336841753,1793252000000,
-0.05357567557047525,-1.0532000939119033,-0.9809128497500391,1793257000000,
0.0671903042470611,-1.025414252285644,-0.9814731193390858,1793262000000,
-0.05996483075584845,-1.1780095362612666,-0.980658050331524,1793267000000,
-0.016340485773352183,-1.0238292889497471,-0.980553700842384,1793272000000,
0.012884526203629953,-1.0824857698582442,-0.9811239794727433,1793277000000,
0.015554636861475877,-1.2602666822470718,-0.980527608179156,1793282000000,
-0.02032551472065141,-1.0459069887960497,-0.9795676762140588,1793288000000,
0.014547849180533699,-1.0940235354631231,-0.9801397793063057,1793293000000,
0.025381282893867527,-1.1959895870441972,-0.9790232736634985,1793298000000,
-0.16930678309633782,-1.0306513129309551,-0.9783257990944378,1793303000000,
0.021047825989890037,-1.0438469233264855,-0.9792923956538772,1793308000000,
-0.012028711282413486,-1.2342497671992003,-0.9790252029586791,1793313000000,
-0.07340131727762408,-1.0438610788655225,-0.9790556645828432,1793318000000,
0.060303813249859076,-1.077940375893144,-0.9797705321620914,1793324000000,
0.061266746135158597,-1.224361518247564,-0.9792715255708426,1793329000000,
-0.10808124350213857,-1.0589217702037579,-0.9788862706954782,1793334000000,
0.04306768054545143,-1.0210350327057514,-0.9795225499008338,1793339000000,
0.020864561932196816,-1.1634069217325271,-0.9795082185873151,1793345000000,
-0.1383988047412594,-1.019354381856686,-0.9789489214961042,1793350000000,
0.032492723172406396,-1.0043709848808262,-0.9791665969090942,1793355000000,
0.03376408861808132,-1.121456782811863,-0.9796444982039941,1793360000000,
-0.05904079701914283,-1.1614153260109108,-0.9788799709567058,1793365000000,
-0.059918043092734505,-1.0554062116803078,-0.9788391824180642,1793370000000,
-0.0043785859299969344,-1.1192822379132121,-0.9795540208045272,1793376000000,
0.012716333631698426,-1.1401250675442818,-0.9787343342339331,1793381000000,
0.03373490192066408,-1.033258380714087,-0.9790863385755062,1793386000000,
-0.07913777000543497,-1.1919791486467457,-0.9795470077527292,1793391000000,
-0.014622325674364542,-1.0925353472874302,-0.9786953584995751,1793397000000,
0.021307351306700813,-1.0828462033374255,-0.9826180556860246,1793406000000,
-0.03496055862267333,-1.085441477606966,-0.9829147759518454,1793411000000,
-0.6533783377181792,-1.1797705475660516,-0.9862084212175845,1793416000000,
0.779647880962746,-1.1636624763342824,-0.988822142861374,1793421000000,
0.011857998704282984,-1.0807381724476501,-0.9892479199701458,1793426000000,
-0.835862985948681,-1.1360083763984348,-0.9904090879021231,1793431000000,
0.16054871316053113,-1.168098338907181,-0.994314737415634,1793437000000,
0.6733774847941426,-1.043820197250708,-0.9944482540407128,1793442000000,
-0.8566451403970653,-1.0433258225382078,-0.9949990599548878,1793448000000,
0.031209333848973585,-1.0812814334367429,-0.9986890476266289,1793452000000,
0.7712592058960283,-1.0731164779352915,-0.9994503141429737,1793457000000,
-0.8625129276953546,-0.9878734035241556,-1.0008675178371353,1793462000000,
0.05579148515149401,-1.0807226318545817,-1.0043550103201233,1793467000000,
0.7097184996025756,-1.1146633418990393,-1.005079365764803,1793472000000,
-0.8875915298046557,-1.0429393096462327,-1.0056042062029007,1793477000000,
0.08264242716056387,-1.1134589533196584,-1.0098328485027284,1793482000000,
0.6169661913862751,-1.232714575548219,-1.010330674040952,1793488000000,
-0.892004503689724,-1.1013223515804944,-1.010775971670243,1793493000000,
0.06820074819883284,-1.1219824158823994,-1.0146283228632895,1793499000000,
0.7627611704600618,-1.1945771347580285,-1.0147938698773407,1793505000000,
-0.6133254547166951,-1.1037554859717962,-1.0158344047164152,1793510000000,
0.6819149048929422,-1.1645106423922718,-1.018428667694224,1793515000000,
0.10226714652486821,-1.1667133283262519,-1.0185828904450307,1793520000000,
0.09253303775476907,-1.2020328778595797,-1.0176177607085315,1793525000000,
-0.05535652681064542,-1.0389336100163395,-1.017719292288673,1793530000000,
-0.054732941954234046,-1.1473222113758468,-1.0161481617543364,1793536000000,
0.12220195442453426,-1.2461754337705129,-1.015262676714985,1793541000000,
-0.11524507390617965,-1.0405697642473228,-1.012551393129775,1793548000000,
0.14508858126273586,-1.1791918677871962,-1.0116069082284487,1793553000000,
0.10957913897855037,-1.238144090691232,-1.0101816470961873,1793558000000,
-0.09097309373862791,-0.9987220448310091,-1.008701450858651,1793563000000,
0.0391046921516706,-1.1543955431846713,-1.0076106924855235,1793568000000,
0.10205729345907413,-1.2295300214280076,-1.0064080309904146,1793573000000,
-0.09070911945248313,-1.0401872210950698,-1.004782558861412,1793578000000,
-0.015990836990515553,-1.1458055342505225,-1.0043208128112777,1793583000000,
0.07996526250790609,-1.209645365863368,-1.003056989502746,1793588000000,
-0.04597815528940783,-1.037493471174762,-1.0019583958611489,1793593000000,
-0.01559711393064948,-1.1445245315322816,-1.0017531337399563,1793598000000,
0.07717343585153616,-1.1574386969409918,-1.000415141126018,1793604000000,
-0.025147474673476767,-1.0142666274294772,-0.9994885652898837,1793609000000,
-0.06446133169029192,-1.148343209573081,-0.9994568487756488,1793614000000,
0.07664505041649852,-1.1813934388708627,-0.9985236916924751,1793619000000,
0.017243066085476037,-1.0096006977380148,-0.9977929299192747,1793624000000,
-0.06280009181994838,-1.1455631735596312,-0.9972261174085607,1793629000000,
0.029280323153957732,-1.1753387710553005,-0.9962293912345279,1793634000000,
-0.015925692358676396,-1.0711393912131784,-0.9955416341175173,1793639000000,
-0.17620723777402997,-1.0294139892900371,-0.995907441212382,1793644000000,
0.1318189975639929,-1.1820690369224234,-0.9947053166452947,1793649000000,
-0.10844813095793074,-1.036760184021385,-0.9945529085367312,1793654000000,
0.02749812387357919,-1.1127983646140585,-0.9946642319829685,1793659000000,
0.07008236088422148,-1.1569362992464378,-0.9936227560839211,1793664000000,
-0.03788239966007216,-0.9967739856767253,-0.9933340979477365,1793669000000,
-0.04135398514256935,-1.1535116930768619,-0.9928411903322288,1793674000000,
0.03095470657525471,-1.1876247730161476,-0.9923575797563535,1793679000000,
-0.034650711292070424,-1.0065750061487824,-0.9928573244330565,1793684000000,
0.015127597120828389,-1.218915741908859,-0.9923495061947449,1793690000000,
0.0027734354729048415,-1.0818514679185018,-0.9917841249487308,1793695000000,
-0.053910929455986155,-1.0552973881372198,-0.9919531847922749,1793700000000,
0.013422786971970253,-1.1862487631260163,-0.9918876020162432,1793705000000,
-0.05571594699201127,-1.1008947114049652,-0.9917565013205191,1793710000000,
-0.08695730397097863,-1.0586655246918621,-0.9917488872348542,1793715000000,
0.08305908694352374,-1.1736849968493421,-0.9921527427138397,1793720000000,
-0.04323201561177202,-1.1162315821282718,-0.9915366955037923,1793725000000,
-0.05183488356668522,-1.067517391437483,-0.991726098738435,1793730000000,
0.043869470642072,-1.1981167212867365,-0.9916683933905606,1793735000000,
-0.03582643944481886,-1.1163678741382668,-0.990814664033886,1793740000000,
-0.07891249956963045,-1.055170268171419,-0.9913370864330295,1793745000000,
-0.5646127400139679,-1.1906810254270443,-0.9929631020212769,1793750000000,
0.5853391528033882,-0.999472561187355,-0.9957054384673183,1793755000000,
0.036665510491188956,-1.1467457338638414,-0.9970825358198392,1793760000000,
-0.7758565658926047,-1.1024520063620382,-0.9999310222650682,1793765000000,
0.05151334217545235,-1.0950844450302295,-1.004415512755904,1793770000000,
0.860648805774681,-1.054819554007187,-1.0074933284672336,1793775000000,
-0.9127216711165693,-1.2402196504719072,-1.0088270077799442,1793780000000,
-0.025746298106060276,-1.038917956210241,-1.013489340262109,1793786000000,
0.8516767550181898,-1.076997367356756,-1.0151873475243705,1793791000000,
-0.9938049443077202,-1.2302572937621816,-1.0167294462070682,1793796000000,
0.010976252102767113,-1.0562283566284303,-1.020277133009234,1793801000000,
0.8145382315596569,-1.128967856430393,-1.0220196474657304,1793806000000,
-1.1210263355124375,-1.2193025245536915,-1.0228949702598036,1793811000000,
0.018646087742871183,-1.1086117346519517,-1.027246916889291,1793816000000,
0.6593899084525968,-1.1782100057992713,-1.0272731044328327,1793821000000,
-1.1819464423326604,-1.1435231600154314,-1.0281751831244161,1793826000000,
0.07936398603902471,-1.1271504308873044,-1.0315739772244732,1793831000000,
0.6853312280899424,-1.2291736922228915,-1.0327367184255147,1793836000000,
-0.6082814060575416,-1.147660796254869,-1.032371189845,1793841000000,
-0.15296055801437433,-1.1206443603935894,-1.0348190278247436,1793846000000,
0.6070687716131268,-1.2141789953863882,-1.036305778270794,1793852000000,
-0.6447053008801148,-1.1013807805835911,-1.0350857353493021,1793857000000,
0.7911650677562982,-1.1339304380845636,-1.0350042345418264,1793862000000,
-0.029208099651427028,-1.2061799435474143,-1.0321746120107325,1793867000000,
-0.673246950726769,-1.1807297229899623,-1.0292300828222396,1793872000000,
0.8339427707155489,-1.0866583819105247,-1.0276416442363812,1793877000000,
-0.09110957195632456,-1.1707911572166185,-1.0238052380904175,1793882000000,
0.1043057051331879,-1.1750522153403016,-1.0210086419852447,1793887000000,
-0.307421811566254,-1.21983925985421,-1.0184202291992897,1793892000000,
0.12024115088115499,-1.0225479877502168,-1.0168650716905814,1793897000000,
0.17857150396933533,-1.1262342405277816,-1.0144824582458714,1793902000000,
-0.015047436955727621,-1.1156707062306392,-1.012371443350805,1793907000000,
-0.1070034729561841,-1.0583996564505063,-1.0104202640124138,1793912000000,
0.15294846505537504,-1.1714507669486722,-1.0092173966611944,1793917000000,
0.013655843299074856,-1.1412781212011853,-1.0072393569434546,1793922000000,
-0.0916202595484121,-1.1032127975489874,-1.005624098030873,1793927000000,
0.10004016674550291,-1.1268713794384284,-1.0049435076474407,1793932000000,
-0.04576429612614259,-1.1231200783028052,-1.0027959524648966,1793937000000,
-0.04088916983293428,-1.095849966360767,-1.0018523990123287,1793942000000,
0.11162661809668974,-1.1472021142455726,-1.0002281869826817,1793947000000,
-0.040113774068715996,-1.1022333750941473,-0.999057779995006,1793952000000,
-0.049256628532309235,-1.0211349774870122,-0.9978123679171811,1793957000000,
0.08783607227092335,-1.1784387947969086,-0.9964891861076154,1793962000000,
0.03830100767345748,-1.0673053109500512,-0.9954960192115716,1793967000000,
-0.17514974598044697,-1.0940055106168836,-0.9945128827488515,1793972000000,
0.07763453590039514,-1.1756900679601785,-0.9937878820286109,1793977000000,
-0.04669942118912084,-1.046684853775487,-0.9934100882231249,1793982000000,
-0.05782346785441171,-1.1254237203613462,-0.9920934523488945,1793987000000,
0.05572476480685877,-1.1682683105666747,-0.9918413591959087,1793992000000,
-0.011462257693891566,-1.016509727319951,-0.9912867158174112,1793997000000,
-0.14634821872024628,-1.1574194812724927,-0.9907904638949356,1794002000000,
0.07637959986442219,-1.162652197218802,-0.9905712161265495,1794007000000,
0.009569048612197203,-0.9845417369147484,-0.9902522658578052,1794012000000,
-0.08694674784864295,-1.1634343219065186,-0.989890980204017,1794017000000,
0.08851660240012661,-1.1380571217348368,-0.9895004334441118,1794022000000,
-0.012400006462722362,-0.9730113423710337,-0.9888237351724541,1794027000000,
0.02825931637459473,-1.1886490902695543,-0.9890431064214561,1794032000000,
-0.029082239230817732,-1.1390723782787393,-0.9884170191618997,1794037000000,
-0.025055004903165107,-1.0059039017606988,-0.9883346694790816,1794042000000,
0.023019300150886792,-1.1932894230584117,-0.98803259598582,1794047000000,
-0.03136222825208687,-1.0791441906131685,-0.9875665657029643,1794052000000,
-0.06729101492519297,-1.0899909612604908,-0.9874475974776951,1794057000000,
0.06964519994824224,-1.1577389337614004,-0.9880621855529322,1794062000000,
-0.07756804673456494,-1.006081178679631,-0.9875641340455747,1794067000000,
0.006970461512819395,-1.1116643271154218,-0.9871105991484076,1794072000000,
0.04668103467730789,-1.1220761689841485,-0.987538700323389,1794077000000,
-0.06112438511950689,-1.0567219788069835,-0.9875868309368245,1794082000000,
-0.024327150408676574,-1.075813256504042,-0.9869380536853154,1794087000000,
-0.597322503291952,-1.1358099562323105,-0.9885648976648798,1794092000000,
0.5266239102904704,-0.9899047895017576,-0.9905342319473804,1794097000000,
0.03385871675256947,-1.200831376576945,-0.9917534632063646,1794102000000,
-0.6495881035309157,-1.1433890604752917,-0.9941394293605716,1794107000000,
0.46730875524354776,-1.035989205403048,-0.9970975441775757,1794112000000,
0.1798297946025914,-1.1414482763625529,-0.9982161125439267,1794117000000,
-0.8068607955460223,-1.1445465772955574,-1.0000754380479013,1794122000000,
-0.0015348683472960027,-1.0749626012118687,-1.0037015458439968,1794127000000,
0.4899622568666136,-1.0150894494847815,-1.0082247174894707,1794132000000,
0.26112789323583685,-1.229201723193672,-1.0095517883372938,1794137000000,
-0.8522442524894992,-1.2456560051597205,-1.0119967980185698,1794142000000,
0.4485888726044129,-1.0536800323467785,-1.0166780241272815,1794147000000,
0.35946629363706645,-1.2122199863663565,-1.0165840828315484,1794152000000,
-0.8954513095167558,-1.1751076957548243,-1.0186067151845364,1794157000000,
0.011983296091972476,-1.0324674371134732,-1.0214813675070924,1794162000000,
0.8014829542475694,-1.1758581236948582,-1.0214449209732794,1794167000000,
-0.8820483833515298,-1.1503480813681997,-1.0221093287901593,1794172000000,
0.025606932064967395,-1.109615490701214,-1.0253680683172433,1794177000000,
0.8935435323667203,-1.1793118611671913,-1.0246870790285452,1794182000000,
-0.9322788356041188,-1.1167857219822588,-1.0243121580629597,1794187000000,
-0.037453186651528594,-1.1008156352146625,-1.0276048652955392,1794192000000,
0.89921069047847,-1.1548838288818943,-1.0261082067249443,1794197000000,
-0.7457587448251098,-1.1060051740558714,-1.025009346774208,1794202000000,
-0.18501345302454358,-1.0987030200814154,-1.0273832296671046,1794207000000,
0.9468560338004628,-1.2193995130985569,-1.0270192579583621,1794212000000,
-0.04015655086236466,-1.1337811371726039,-1.024758282163844,1794217000000,
-0.967766222795612,-1.1568114973467092,-1.0243670333501351,1794222000000,
0.9121277876458371,-1.1307201775038251,-1.0261626245448594,1794227000000,
0.06727212908327729,-1.1782829015310472,-1.0234639200407345,1794232000000,
-0.014700259979881981,-1.1366810101678235,-1.0210200549829083,1794237000000,
-0.04057982278286357,-1.0750874127902892,-1.0217049008116352,1794242000000,
-0.058470804005622476,-1.1049422581227497,-1.0185289197373857,1794247000000,
0.010295502484423992,-1.1955047556709835,-1.0163521864193887,1794252000000,
0.1025385867236629,-1.1790618993526438,-1.0144640226295278,1794257000000,
-0.007466732427160758,-1.0980687685090256,-1.0121483289361897,1794262000000,
-0.17553005801219723,-1.0296448598736858,-1.0093162508388223,1794267000000,
0.034067387519624674,-1.172485885381604,-1.0074826946491184,1794272000000,
0.18105692306275148,-1.1968945026629443,-1.0056854680111726,1794277000000,
-0.16425162242100053,-1.108570912388158,-1.0034592800071314,1794282000000,
0.05243998535650228,-1.0522943028180656,-1.0027290621039078,1794287000000,
0.11417626901785505,-1.1057658886172186,-1.0007332924409915,1794292000000,
-0.012969737309535993,-1.093806673564399,-0.9994201709281602,1794297000000,
-0.046893922332657746,-1.104885205226184,-0.9980636317219066,1794302000000,
0.08443636418833772,-1.1294740653175823,-0.9965387674876461,1794307000000,
-0.026530602383105024,-1.0818914484257278,-0.9955217696886705,1794312000000,
-0.021043327743920873,-1.128686032314927,-0.9942816565343802,1794317000000,
0.08929940587279374,-1.1060528872076347,-0.9934477517092651,1794322000000,
-0.028048520798404097,-1.1190496831572703,-0.9920521142909678,1794327000000,
-0.03840794793625655,-1.0826884311947684,-0.9910760984292907,1794332000000,
0.06144870623520089,-1.1328134883698204,-0.9909091772935805,1794337000000,
-0.013914069294317842,-1.0927983665232415,-0.990005316417481,1794342000000,
-0.012002573295802956,-1.1652209156835225,-0.9890334425270282,1794347000000,
-0.014720544078239889,-1.1064377282185716,-0.9890939232957604,1794352000000,
0.10865155486724529,-1.046525898409465,-0.9887572275360953,1794357000000,
-0.15432023177800572,-1.0636381737637828,-0.9883215406701931,1794362000000,
-0.04217090131825223,-1.15980686996915,-0.9881377658545734,1794367000000,
0.06742159384128438,-1.1140785361470298,-0.9885852749913056,1794372000000,
-0.11793542832636995,-1.065917615653459,-0.9884561561115187,1794377000000,
0.0633554851857652,-1.1235293424746429,-0.9882098082862871,1794382000000,
-0.05569075320622878,-1.1074572517525847,-0.9885302181269796,1794387000000,
0.10081781856639445,-1.023635909843187,-0.9889396531951343,1794392000000,
-0.05588174837348178,-1.1066957703532645,-0.9887618728270342,1794397000000,
-0.09450458197054926,-1.1794543086235465,-0.9880338032586614,1794402000000,
0.10833490323262969,-1.0866687031448223,-0.9877864417466194,1794407000000,
-0.030047033464513817,-1.0528292702246984,-0.9874203099765371,1794412000000,
-0.005308850252962743,-1.1448595293280752,-0.987032633082066,1794417000000,
0.057846998249227476,-1.1076514377417115,-0.9870151115199524,1794422000000,
-0.05114489668828803,-1.076015962122757,-0.9863209763728479,1794427000000,
-0.03482624093087745,-1.1309646089162795,-0.9860759289930472,1794432000000,
0.07060521437187268,-1.0835855117659223,-0.9856543906789738,1794437000000,
-0.04095938605388989,-1.0765455056728916,-0.9853761177742177,1794442000000,
-0.029708848335431626,-1.2143812973347743,-0.9848577820431819,1794447000000,
0.0686297237080759,-1.072821946180191,-0.9851667949343137,1794452000000,
-0.051605236942301,-1.015467169608255,-0.9847321195477992,1794457000000,
-0.06586193557207844,-1.1931105513965166,-0.9846787597916468,1794462000000,
0.08733092610362612,-1.1109177635878382,-0.9857452773576051,1794467000000,
-0.13183915041728794,-1.0768803172022947,-0.9853761843504747,1794472000000,
0.05201679813173582,-1.1079610135534623,-0.9854719632164674,1794477000000,
0.04749528494573188,-1.0908150216465555,-0.9860608858424839,1794483000000,
0.033569117392564435,-1.1223832914077194,-0.9858788975279446,1794488000000,
-0.06029758607027037,-1.086082900681362,-0.9856214676147269,1794493000000,
0.06613307423153213,-1.079819702650768,-0.9856550943351017,1794498000000,
0.04689511610909538,-1.1028195870200042,-0.9851782180584069,1794503000000,
-0.11393251911207358,-1.1419125482288723,-0.9848324838810624,1794508000000,
0.06699217210812344,-1.0557173459147604,-0.9851151183981354,1794513000000,
-0.0946010611998997,-1.082495921365619,-0.9849598691462996,1794518000000,
0.003771935504807128,-1.148032469138145,-0.9845305269892412,1794523000000,
0.029364234775490092,-1.066527154303998,-0.9847506686856589,1794528000000,
-0.09584447794080941,-1.081643017110563,-0.9841586268325063,1794533000000,
-0.0037747524176275256,-1.151070694590503,-0.9842170153845307,1794538000000,
0.06442262519962416,-1.0827394693345167,-0.9838986676200282,1794543000000,
-0.10234956530695162,-1.0765133583199928,-0.9842911802635806,1794548000000,
-0.018562068862303206,-1.1450745953967374,-0.9838077679460003,1794553000000,
-0.5414645902181761,-1.033552917309531,-0.9869039307844367,1794558000000,
0.5702541117994334,-1.1532693289139286,-0.9887486252014753,1794563000000,
0.12716589120863825,-1.099138161234222,-0.9898946627911571,1794568000000,
-0.5390730600679405,-1.0778644467009126,-0.991522259676798,1794573000000,
0.21689401268447864,-1.1714867887962903,-0.9954461891603349,1794578000000,
0.29797377147249426,-1.08699543460665,-0.9978778540507853,1794583000000,
-0.7074358385004955,-1.1307182598447998,-1.0000096871551682,1794588000000,
0.030834304471436116,-1.1126574254224406,-1.0037900555445802,1794593000000,
0.5613529506235613,-1.0983509515855894,-1.0069386143203045,1794598000000,
-0.6163183865863473,-1.1526549708768128,-1.0088129610657548,1794603000000,
-0.041808328224563825,-1.094106179245563,-1.0121898235299263,1794608000000,
0.6415068228771045,-1.1026384477505777,-1.0146989752492153,1794613000000,
-0.7240578354163315,-1.2013809015680985,-1.0154055439602572,1794618000000,
-0.008951890148432584,-1.1335627857308122,-1.018196906043714,1794623000000,
0.7770635664830409,-1.1426451287334238,-1.0198271818949864,1794628000000,
-0.8322412130167239,-1.139353458492901,-1.020110128939328,1794633000000,
-0.046385079686210556,-1.1056754238001236,-1.0224026148536327,1794638000000,
0.8999266298606753,-1.1380852366969962,-1.022201304372901,1794643000000,
-0.8849642484984296,-1.1815236513071898,-1.022412748555121,1794648000000,
-0.026032973339068212,-1.1649094195344656,-1.0243077888776295,1794653000000,
0.9142051874353262,-1.120177906702325,-1.024480924451731,1794658000000,
-0.7602806748406746,-1.1592337456472026,-1.022406250132289,1794663000000,
-0.20443676868763538,-1.1311884161614882,-1.0242465440513733,1794668000000,
0.8763683677178196,-1.1271985897296544,-1.024121825055499,1794673000000,
0.04380470122964765,-1.1477201714284764,-1.0217037198161878,1794678000000,
-0.21352101557776976,-1.120480463191591,-1.0226707870466316,1794683000000,
0.16694504496018195,-1.15177303989631,-1.0206358146361167,1794688000000,
-0.0048210905536376445,-1.1308303957493906,-1.0173407762698594,1794693000000,
0.06195266641306228,-1.0866841011664463,-1.0148987182949074,1794698000000,
-0.08183710043533582,-1.142283546145856,-1.0118778167464062,1794703000000,
-0.15245138217966794,-1.1611742048376092,-1.0090884739690682,1794708000000,
0.12302898271299963,-1.1015856846076137,-1.0063495256276507,1794713000000,
-0.06656930772201669,-1.155075287343939,-1.0047860764376828,1794718000000,
0.006455137713187124,-1.0723835072632553,-1.0024752720492438,1794723000000,
0.10088955417426333,-1.0709334270439546,-1.001176370388018,1794728000000,
-0.10108100361074511,-1.0872622448077098,-0.998599856350977,1794733000000,
0.09161296219691038,-1.1194943801557324,-0.997089482481362,1794738000000,
-0.019047030898407136,-1.0973654224271414,-0.9967646842199416,1794743000000,
-0.030248289744939157,-1.207078248736871,-0.9954944008438634,1794748000000,
-0.039418684694460686,-1.1156796218674057,-0.993537577982769,1794753000000,
0.15117167905753423,-1.0609740779632357,-0.992918606156368,1794758000000,
-0.0533901171815781,-1.1328486348057654,-0.9913707501225966,1794763000000,
-0.09168573064892614,-1.1515157663850306,-0.9902948210012522,1794768000000,
0.16784913554035646,-1.0413470790175932,-0.9896652945267119,1794773000000,
-0.09047105191362578,-1.1416677085436766,-0.9892779881700593,1794778000000,
-0.059962463257102534,-1.1177775691964504,-0.9876174170333326,1794783000000,
0.07742933519481923,-0.9998451245049649,-0.9875654335725016,1794788000000,
-0.10195164283244822,-1.172085063735062,-0.9872976679884076,1794793000000,
0.04340978690873404,-1.0767065641676923,-0.9864450956281956,1794798000000,
0.11723388202696987,-1.0276728580488337,-0.9859900888560595,1794803000000,
-0.11094962330438989,-1.1426000033710377,-0.9856179954951748,1794808000000,
0.003947329710378396,-1.074741615169972,-0.9850155263112949,1794813000000,
0.048949284861730294,-1.0539730266065424,-0.9851746441251388,1794818000000,
-0.04896932790664298,-1.1383644470745178,-0.9849780959477511,1794823000000,
-0.0025536847446512817,-1.1022005634083234,-0.9843538614899436,1794828000000,
0.05051538501922822,-1.0898864698457598,-0.9845548725083529,1794833000000,
-0.011209436819078315,-1.148448756235546,-0.9846043870658779,1794838000000,
-0.03413909531395992,-1.109557976108554,-0.9844648497598439,1794843000000,
0.027160880098635688,-1.0430676026188515,-0.9838951446976715,1794848000000,
-0.09870324725446372,-1.147665586963902,-0.9838569746205874,1794853000000,
-0.00997210771184908,-1.0720459222158263,-0.9836659004195142,1794858000000,
0.03344729608971809,-1.073535663747855,-0.9836129545011423,1794863000000,
-0.014427053337345758,-1.1629413029407931,-0.984026514201756,1794868000000,
-0.006579090475316975,-1.09516620644628,-0.9832543152049983,1794873000000,
0.04847473775597483,-1.0394339176185197,-0.9828460745030949,1794878000000,
-0.07952274363556429,-1.1555011134755517,-0.9834076500842578,1794883000000,
-0.0320616115727627,-1.0811331364947903,-0.9828933348106436,1794888000000,
0.0482751236935287,-1.034833960144333,-0.9829505299010093,1794893000000,
-0.04977910555999866,-1.1270495003906102,-0.9830670272743035,1794898000000,
0.01632674260102949,-1.1502842093334535,-0.9826221120006295,1794903000000,
0.07470059108930197,-1.035568326620515,-0.9822135677937698,1794908000000,
-0.033076862563713165,-1.2115534322375132,-0.9821552548202098,1794913000000,
-0.055367661001908666,-1.0722540823179967,-0.9820670451882232,1794918000000,
0.03712496822412065,-1.0155527856327813,-0.9821969156899348,1794923000000,
0.004325603888840766,-1.16479336689373,-0.9821982637259029,1794928000000,
-0.053838249429979904,-1.0782724659214722,-0.9817213510352114,1794933000000,
0.06873149620064961,-1.0198334164105105,-0.982113356455183,1794938000000,
-0.07501123724724956,-1.1867666143501279,-0.9824095233399334,1794943000000,
-0.0017245682406804878,-1.0671794413729203,-0.9819927950309898,1794948000000,
0.0321534130102238,-1.0132858105012024,-0.9821860514614595,1794953000000,
0.006753308503475664,-1.201897125875981,-0.9820734336205502,1794958000000,
-0.07735443461716372,-1.0964021233563677,-0.9820067173056191,1794963000000,
0.010518669160908312,-1.0263226688925955,-0.9817552989454787,1794968000000,
0.15838121692819523,-1.0797520292846106,-0.9818447443967896,1794973000000,
-0.1400472469852951,-1.1653398836172773,-0.9810118364421019,1794978000000,
0.011046989610999135,-0.9987290217375044,-0.980688714374311,1794983000000,
-0.0021136981396933097,-1.1733082021879389,-0.9807043099026592,1794988000000,
-0.025958608205794008,-1.0835289144681808,-0.9799801696207641,1794993000000,
0.05205952507243557,-0.9540929801681352,-0.9801545538459394,1794998000000,
-0.005861512139050522,-1.3136131995208353,-0.9795620539732516,1795003000000,
-0.08206054336875068,-1.1061619968958105,-0.97900834557705,1795008000000,
0.06921570618336317,-0.921171405323658,-0.9787158539880549,1795013000000,
-0.02420383334036014,-1.1728299558600082,-0.9789548713360235,1795018000000,
-0.0741171395612298,-1.070227099806901,-0.979059865533698,1795023000000,
-0.6304719503353746,-1.0239758711947002,-0.9824323286314313,1795028000000,
0.44405696319642474,-1.0984894143041022,-0.9858361068007678,1795033000000,
0.10084776335722123,-1.053416970013283,-0.9878156235035529,1795038000000,
-0.6834686689585603,-1.030835737057137,-0.9898305519793439,1795043000000,
0.004466318157583651,-1.0381385338253815,-0.9950997767092306,1795048000000,
0.545220494605916,-1.0982890629551538,-1.0006286888457032,1795053000000,
0.09986781314784088,-1.1827914163965092,-1.0028669471403353,1795058000000,
-0.7269805183124071,-1.0488140814078306,-1.0075811308384672,1795063000000,
0.7718070693008451,-1.2259486226949792,-1.010704521526756,1795068000000,
-0.709345199611582,-1.1063685998160062,-1.01205871026655,1795073000000,
-0.07073544493483629,-1.1301121559124434,-1.0164448628058016,1795078000000,
0.8629610910311335,-1.1955410439593177,-1.016999392031502,1795083000000,
-1.0827751783868207,-1.0883833167922763,-1.0175164953509208,1795088000000,
-0.044767716339431655,-1.1392764007263596,-1.0212104637223443,1795093000000,
1.1379603828886637,-1.2130389664803711,-1.021487340463891,1795098000000,
-0.8292023002755913,-1.0895382198608843,-1.0225403944957543,1795103000000,
0.01099337916203428,-1.1410696106295701,-1.025055204307004,1795108000000,
0.7749863592957466,-1.2092012896979467,-1.0238775097730437,1795113000000,
-0.992101099912694,-1.0825533765839834,-1.0251443326778251,1795118000000,
0.55145679313552,-1.1822982510828828,-1.0283850697005763,1795124000000,
0.2351705809779755,-1.1248379359803717,-1.0280011326637162,1795129000000,
-0.7743913062769815,-1.114453754474816,-1.0286249141996284,1795134000000,
0.002489299331850744,-1.146139660601259,-1.0305585514981321,1795139000000,
1.1404801925555323,-1.180687394618912,-1.0304551552795902,1795145000000,
-0.5401767814323559,-1.12850414235355,-1.0291061494044536,1795150000000,
0.5052976254096625,-1.1258068596343054,-1.0304823315128226,1795155000000,
0.07734106421402101,-1.1747185064806256,-1.0295510493939823,1795160000000,
0.06819426580234147,-1.1617269056957613,-1.0273092201374456,1795165000000,
0.08877438676865791,-1.1989304241777883,-1.0242828490104035,1795170000000,
0.029852617986052224,-1.1197128939603112,-1.0217874012776949,1795175000000,
-0.2009993935881473,-1.0486466164651504,-1.0183021393696416,1795180000000,
0.07008860671500955,-1.1737302744489722,-1.0140805645449582,1795188000000,
-0.008960410182798573,-1.052721972230472,-1.0115899057881896,1795193000000,
-0.01246778644467829,-1.1657887052737033,-1.0097848991672862,1795198000000,
0.10350162444902213,-1.193176165183068,-1.0071661337842492,1795204000000,
-0.0859678252990755,-1.0616936140155537,-1.0054603338847725,1795209000000,
0.0008850342817192489,-1.1189794387514462,-1.0036088437401454,1795214000000,
0.21846208890324026,-1.2653312031929254,-1.003107461308712,1795219000000,
-0.03387940872016752,-1.057938052302486,-1.0009507537744748,1795224000000,
-0.019153833600197748,-1.141935404608773,-1.0003309860945986,1795229000000,
0.06164110895980912,-1.1566504043807726,-0.9988422896330402,1795234000000,
-0.028797587756856327,-1.0008813082316603,-0.9978158262403416,1795239000000,
-0.002013627274086073,-1.1762878966469446,-0.9967484111117303,1795246000000,
0.09043641384844336,-1.0695334771348148,-0.9961678757274521,1795251000000,
-0.05182068440049262,-1.0309609363007846,-0.9950260791308623,1795256000000,
-0.0838097861860027,-1.1783737298487797,-0.9948378185753032,1795261000000,
0.03876974607522326,-1.148181497811138,-0.9939256090945688,1795266000000,
-0.019566401018951626,-1.0537299256894586,-0.9934041168297246,1795271000000,
-0.05459926666631983,-1.077670391401348,-0.9934710298936325,1795276000000,
0.33725217603438207,-1.387258335050149,-0.993438173100386,1795281000000,
0.07318013029307197,-1.088712426435103,-0.9926499938047004,1795288000000,
0.000485483844735235,-1.1126365016345494,-0.9919508442140715,1795293000000,
0.021572784565771733,-1.0709154401368772,-0.9913371476834013,1795298000000,
-0.16942072407247963,-1.0753867759666793,-0.9908789182361388,1795303000000,
-0.010241750871385817,-1.1411288501854742,-0.9913438992260837,1795308000000,
0.09588167494138942,-1.125510324342869,-0.9902863931508445,1795313000000,
-0.15916340470540244,-1.0684434637177633,-0.9905253776324258,1795318000000,
0.13008159894032154,-1.1868375902168966,-0.9903931070903079,1795323000000,
0.03613495365425562,-1.0760364237256255,-0.9899959118963465,1795328000000,
-0.14044768355532516,-1.0809731454527924,-0.9906438983668553,1795334000000,
-0.7280451307403067,-1.1957988282165664,-0.9914905098741814,1795339000000,
0.5093498162641383,-1.0462550272433802,-0.9948269300471368,1795344000000,
0.015804311207914715,-1.1574773527266373,-0.9964909513854243,1795349000000,
-0.7829481824117668,-1.1567381536486672,-0.9989352816555775,1795354000000,
0.4217499754356667,-1.0666823460932753,-1.00267249790255,1795359000000,
0.1373183100098911,-1.1342518264532078,-1.0038594359292967,1795364000000,
-0.713185100683558,-1.1628776146750404,-1.0059814282847535,1795369000000,
-0.1811764820640653,-1.0246363919027968,-1.0102893068265606,1795374000000,
0.8876253015603557,-1.1809366915121071,-1.0124616848556571,1795379000000,
-0.8366217892740844,-1.116253165565529,-1.0137936971725152,1795384000000,
0.020012268582559726,-1.1164668636743318,-1.0169828737964597,1795389000000,
-0.1353532326447888,-1.1317275769568815,-1.0220992732434153,1795395000000,
0.713334012606589,-1.2182630216023362,-1.0249807893445804,1795400000000,
-0.8056338839441285,-1.0978991762968981,-1.0276520412105186,1795405000000,
-0.040601893027243596,-1.1183278154470369,-1.0315285362876325,1795410000000,
0.8387265309962494,-1.252157746740418,-1.032298196117154,1795415000000,
-1.0927287969321438,-1.0693550099268625,-1.03328273561619,1795420000000,
0.6065375833679738,-1.146819262677457,-1.0366774809462083,1795425000000,
0.15901476800487505,-1.1669603216806557,-1.0340878165379321,1795430000000,
-0.8092012761136441,-1.1055482723882626,-1.037455323566938,1795436000000,
0.7958160723426628,-1.163751097348973,-1.0382470515542181,1795441000000,
-0.04930822379028835,-1.1805359103738875,-1.0365143224360005,1795446000000,
-0.8108686724577163,-1.1760438787793555,-1.0377894241044896,1795451000000,
0.5926810468459843,-1.1929736693687207,-1.0347188178945326,1795456000000,
0.04601133991266634,-1.1279851074931981,-1.0322061903002555,1795461000000,
-0.6634846630306365,-1.1581035701079097,-1.0309591960572657,1795466000000,
1.1050196984590142,-1.0769902303898227,-1.028575433893661,1795471000000,
-0.031871604161475144,-1.1869499169105304,-1.0255968434910319,1795476000000,
0.05947707961232787,-1.1882708945360023,-1.0219826671546277,1795481000000,
-0.0300074307913884,-1.11387937941103,-1.0183644813344626,1795486000000,
-0.04805245811452011,-1.1198873103306608,-1.0156845080367218,1795491000000,
0.08959255681502933,-1.1955788867222024,-1.012707920658619,1795496000000,
-0.10588843302007984,-1.1486611878370527,-1.010559635231879,1795501000000,
0.005214539628864996,-1.052236521655977,-1.0084739632330304,1795506000000,
0.16300310835177909,-1.1705644193065663,-1.0071023120784253,1795511000000,
0.12029697581460734,-1.0604221750667924,-1.005383139072047,1795516000000,
-0.16145001972015605,-1.1253596819857852,-1.003187593378052,1795521000000,
0.07713335883380484,-1.1690453524083495,-1.0014001243908335,1795526000000,
0.11026883052858576,-1.0371991528065743,-1.0002059483573886,1795531000000,
-0.13843715221907374,-1.1219873511309881,-0.9987063558227538,1795536000000,
0.08049503597600408,-1.169206624014043,-0.9979934173865602,1795541000000,
0.10103820125461448,-1.1370803860806933,-0.9964325964639205,1795546000000,
-0.17581720625900824,-1.0517421905664188,-0.9950873725708584,1795551000000,
-0.03811046455775508,-1.1380507039532306,-0.9948165410691452,1795556000000,
0.15636793909324775,-1.1468614471642524,-0.9940774885225654,1795561000000,
-0.06858821724743823,-1.0663246023480952,-0.9928765262971608,1795566000000,
0.028982057962092748,-1.1660403813461568,-0.9920046175694908,1795571000000,
0.07239945552067756,-1.10816972647972,-0.9911087915817807,1795576000000,
-0.0926676539214311,-1.1069857993360621,-0.9904773725055324,1795581000000,
0.031490145441867144,-1.1440254238170509,-0.9898950133120022,1795586000000,
-0.040011110352521966,-1.0733955298026536,-0.9892722091474702,1795591000000,
0.011899538683342113,-1.1230942483823176,-0.9891047632623766,1795596000000,
0.07118719518205441,-1.1297676199067335,-0.9895398036498307,1795601000000,
-0.10518861131660841,-1.054568057530881,-0.9886102931176293,1795606000000,
0.018567496650145152,-1.1115993098611157,-0.9885853901135553,1795611000000,
0.04781790054700243,-1.1209544446925817,-0.9882900198334785,1795616000000,
-0.09329030121843049,-1.0486112707465336,-0.9879680498167128,1795621000000,
0.033995947999520534,-1.1502567437508133,-0.988544733498581,1795626000000,
0.07303123465840061,-1.1225891305348465,-0.988399921881728,1795631000000,
0.03697863509938293,-1.0670001691260582,-0.988500807874881,1795636000000,
-0.03260863952657237,-1.1083567227805604,-0.9888541899235194,1795641000000,
-0.06580849749534015,-1.1462273137400356,-0.988209431412096,1795646000000,
0.07055921023419118,-1.1074841720452784,-0.9885875092655992,1795651000000,
-0.048592605203453584,-1.0584672312620964,-0.9884554744399578,1795656000000,
-0.029555682632370628,-1.1501284009935375,-0.9881787941107025,1795661000000,
0.07593703199390008,-1.120456369065648,-0.9879339378434597,1795666000000,
-0.019699920231363296,-1.0474009834445424,-0.9876995009150924,1795671000000,
-0.034455379039639245,-1.1317471733355002,-0.9874451742053938,1795676000000,
-0.16777732152416247,-1.1253302194520003,-0.9914386871895114,1795681000000,
0.21403554900925684,-1.1307787831649938,-0.9924160061047425,1795686000000,
-0.7442277701462041,-1.1202908059389782,-0.9942788562288847,1795691000000,
-0.01882647807751628,-1.1020541435582776,-0.9983883636625772,1795696000000,
0.5736642157798721,-1.1174118380416524,-1.0029174832328887,1795701000000,
-0.46648859160733364,-1.1456689248505696,-1.0049869895895056,1795706000000,
-0.10608491818360688,-1.094457013232579,-1.00978660980589,1795711000000,
0.903076705085077,-1.1639474881491698,-1.012233486257925,1795716000000,
-0.6376107726030888,-1.1556717501310902,-1.012460612493086,1795721000000,
-0.17879776306284575,-1.1279164143607232,-1.0163641851753613,1795726000000,
0.7854143049907681,-1.1409926619390258,-1.0184689407450964,1795731000000,
-0.026036771969452147,-1.137505838755043,-1.0183262929295958,1795736000000,
-0.8604670139046781,-1.1013637764586832,-1.020489073715739,1795741000000,
0.7040655465577976,-1.1708831478369832,-1.0231942180775662,1795746000000,
0.09776162566722196,-1.1661654510871244,-1.0222911339194385,1795751000000,
-0.8864664999868667,-1.101022799715452,-1.0238156835665715,1795756000000,
0.8518549831577016,-1.1492060103558155,-1.0252862473313806,1795761000000,
0.053194151169030285,-1.1343039124127203,-1.0236848704657409,1795766000000,
-0.9320216859765635,-1.1375166547786113,-1.0240571019188203,1795771000000,
0.6930687054184311,-1.1630251000419831,-1.0264268880464102,1795776000000,
0.3029065964229674,-1.143872329580566,-1.0247635204086543,1795781000000,
-0.7610360255766054,-1.148483851752163,-1.023248435692772,1795786000000,
-0.2118750802250677,-1.1311500034106898,-1.0256494675860444,1795791000000,
0.981293935942478,-1.0735472306972702,-1.0236552319458223,1795796000000,
-0.09719629043481884,-1.1810499455648305,-1.0218076980360857,1795801000000,
-0.7782500169715738,-1.1500477599634136,-1.0221776856579357,1795806000000,
0.5817847489511617,-1.0913338092335623,-1.020155069284801,1795811000000,
0.006445046903963095,-1.1785965353200598,-1.0186218041106927,1795816000000,
0.003217881231563663,-1.1421969795388625,-1.0160466758972073,1795821000000,
0.06513905887515452,-1.1265957348032987,-1.013706198394836,1795826000000,
-0.09506349520360143,-1.095987294375174,-1.01125035390482,1795831000000,
-0.025795152641142554,-1.1354673417173364,-1.0088793210520726,1795836000000,
0.13231352062446464,-1.1307708587930068,-1.0068684338512441,1795841000000,
-0.11622684730380825,-1.013611656280557,-1.0048540135840627,1795846000000,
-0.017035492619170672,-1.210251891447576,-1.003412473097949,1795851000000,
0.09445803337061694,-1.1540000574123366,-1.0017685648133752,1795856000000,
-0.028882864970391837,-1.1090410019774073,-0.9998560039526309,1795861000000,
-0.07141306940364446,-1.123207867444704,-0.9982905709188178,1795866000000,
0.11840235790787955,-1.1004302980288223,-0.9973831462301722,1795871000000,
-0.030420995676997204,-1.1407637636672472,-0.995017932431405,1795876000000,
-0.08359996449422728,-1.1166860970922237,-0.9943292318829524,1795881000000,
0.1111585388699209,-1.0918892166903276,-0.9933253514065572,1795886000000,
-0.05343472617521577,-1.116703695506619,-0.992600638898185,1795891000000,
-0.023095958490038676,-1.0749501050977053,-0.9919789208674865,1795896000000,
-0.034798946842931916,-1.1374821075314514,-0.9910767946355217,1795901000000,
0.09479238390410005,-1.0347434864806087,-0.9906158348923225,1795906000000,
-0.07666930936388394,-1.160747379834113,-0.9906402711789701,1795911000000,
-0.03286784713618132,-1.0525673123221253,-0.989591666321114,1795916000000,
0.08689833541091849,-1.1125457502541456,-0.9895954112230226,1795921000000,
-0.0844894513484285,-1.120116533915069,-0.9895274428113373,1795926000000,
-0.004525628327033011,-1.0911400111698568,-0.988884497929171,1795931000000,
0.08244346961988173,-1.104366021145749,-0.9888431461984595,1795936000000,
-0.10474763816671875,-1.1316930224005208,-0.9882852533989666,1795941000000,
-0.010696093746632395,-1.0855419937239605,-0.9878739963276383,1795946000000,
0.09341127320557881,-1.0961266423766751,-0.9878674986704007,1795951000000,
-0.10818533940378543,-1.143727283656287,-0.9876407787278123,1795956000000,
0.05380201131653867,-1.0826698697147732,-0.9876126847191516,1795961000000,
0.04626164205869842,-1.0767719563186064,-0.9870311238940209,1795966000000,
-0.08958486403420314,-1.0973943776520518,-0.9870406767441621,1795971000000,
0.020408004825568628,-1.0741050820855624,-0.9869715617980999,1795976000000,
0.09116258961894833,-1.0755846544358998,-0.987068946392465,1795981000000,
-0.04773272324634522,-1.140747974460915,-0.9865678130237132,1795986000000,
-0.03825859242693271,-1.0904146820623526,-0.9863422764418736,1795991000000,
0.12190201750539598,-1.011230138612239,-0.9860527583670016,1795996000000,
-0.05367188999741623,-1.1542056220336434,-0.9859287388125623,1796001000000,
0.010972599921117127,-1.0857202765086509,-0.9856221701488914,1796006000000,
0.03737853087966856,-1.0573301971575464,-0.9855747172553991,1796011000000,
-0.10126598276227664,-1.1578673904422043,-0.9851696496922951,1796016000000,
-0.0552091350327999,-1.103011654612888,-0.9855860970935066,1796021000000,
0.10275484602982991,-1.0178496128983419,-0.9855589101604233,1796026000000,
-0.06459629770057797,-1.1734955865474008,-0.9850959094104457,1796031000000,
0.04597596621615402,-1.0561626633638876,-0.9849100905676352,1796036000000,
-0.026607180838919657,-1.0473364217700352,-0.9850372411699494,1796041000000,
-0.038000997790079954,-1.1771223618750728,-0.9847672962612087,1796046000000,
0.05451886594484937,-1.0814717590219036,-0.984616552407206,1796051000000,
-0.07565856174997908,-1.1142206738209521,-0.9842754550984555,1796056000000,
0.006580103914211393,-1.0743574073651119,-0.9840637557829525,1796061000000,
0.06621105567659065,-1.0776276888165706,-0.9842197099130772,1796066000000,
-0.047295269625631804,-1.1744570466358937,-0.9843065944518229,1796071000000,
-0.06904763434842884,-1.0636633251543623,-0.9845649203562878,1796076000000,
0.07083122865329622,-1.0872136189485373,-0.9839690665867344,1796081000000,
0.033329627914543865,-1.0336939111599697,-0.984436389002221,1796086000000,
-0.11114096568241424,-1.2296361325194107,-0.9835233012240423,1796091000000,
-0.5793882612952634,-1.0191291038345915,-0.9849112709984239,1796096000000,
0.42674546092737453,-1.148432668286463,-0.9879298097388598,1796101000000,
0.16349275710833588,-1.1185574339691347,-0.9893726862426118,1796106000000,
-0.7066107277058203,-1.1041217777795667,-0.9908023282509226,1796111000000,
0.008812934645325829,-1.1229541770467417,-0.9947759862026765,1796116000000,
0.6045445049960657,-1.2888441613090587,-0.9986203702707211,1796121000000,
0.11175754499424434,-1.0100983769830287,-0.9996039511584879,1796126000000,
-0.6551617846642215,-1.0787169847407174,-1.0033674305396574,1796131000000,
0.591028702536208,-1.2892710412606827,-1.005966499501225,1796136000000,
0.2481678477740153,-1.0496919518068277,-1.0061181803622419,1796141000000,
-0.809479380022464,-1.0903919117188519,-1.00842956099826,1796146000000,
-0.029158053653280013,-1.194482822185472,-1.011758391291812,1796151000000,
0.8048027250514377,-1.1563135886369147,-1.0122423481977167,1796156000000,
-0.8144088654461261,-1.0581719286216071,-1.0132067882443345,1796161000000,
0.0005628810136006843,-1.1980995726092543,-1.0167451513803247,1796166000000,
0.762094946573498,-1.0836755442759378,-1.0158825216464298,1796171000000,
-0.8792950332143801,-1.0943287714351466,-1.0167114801265253,1796176000000,
0.6914172517744448,-1.1705414496530098,-1.0188340419082311,1796181000000,
0.14376970188654115,-1.0987517949259735,-1.0179575411485056,1796186000000,
-0.8682833514873308,-1.1709038649208439,-1.0187999249734425,1796191000000,
0.646566937510668,-1.1362366289483041,-1.02070889982701,1796196000000,
0.25127621761100954,-1.108133155071984,-1.0198253758285931,1796201000000,
-0.7236749999341545,-1.1005944312107638,-1.0193855126362077,1796206000000,
0.7084855052075142,-1.1540820291069953,-1.0181973374270172,1796211000000,
-0.013247559819501317,-1.1228826377118577,-1.0153456569225843,1796216000000,
0.04922200209872598,-1.11063653882397,-1.0130118262221046,1796221000000,
-0.018064181893985672,-1.1276539048775127,-1.0108100225363945,1796226000000,
-0.15406724529937527,-1.1397339757314022,-1.0088615980591087,1796231000000,
0.08702758550081413,-1.1635222159236855,-1.006507119474001,1796236000000,
0.1261614626946923,-1.0255881198098593,-1.0045656261618732,1796241000000,
-0.06415604097476442,-1.1838932864924132,-1.0023936840740622,1796246000000,
-0.014864787632198805,-1.1324307396468547,-1.0000708246904562,1796251000000,
0.08733368082399989,-1.0277878119444717,-0.9985403874430888,1796256000000,
-0.06183827012860157,-1.2001473156917084,-0.9969990464361138,1796261000000,
0.032866038295931425,-1.0896829404280783,-0.9950762129187846,1796266000000,
-0.009067407226605822,-1.0540928563364762,-0.9942873173677985,1796271000000,
-0.05619033555668242,-1.2172029226173522,-0.9932173453300495,1796276000000,
0.09036034449108271,-1.0615477682476933,-0.9920985531006529,1796281000000,
0.01435396439584753,-1.186963600594503,-0.9911579521085085,1796286000000,
-0.06434121626047849,-1.0865273442346877,-0.9904671001323874,1796291000000,
0.1056171552911362,-1.0552846791596175,-0.9896402975246107,1796296000000,
-0.015946406623733367,-1.134661825643428,-0.9895440816753666,1796301000000,
-0.06151846901911006,-1.1276406602780988,-0.9890599297935413,1796306000000,
0.09413991373444577,-1.0756914642586288,-0.9888731480877938,1796311000000,
-0.009851303039752332,-1.1732664271869258,-0.9873570757863621,1796316000000,
-0.03689868034697321,-1.0752579789095758,-0.9868918214168477,1796321000000,
0.07738925588029587,-1.0386750355310694,-0.986569199031035,1796326000000,
0.028384933486444133,-1.1941024098395085,-0.9862399516243041,1796331000000,
-0.07911219412573794,-1.0345398856227772,-0.9853394927403107,1796336000000,
0.09020203641404932,-1.016296424858895,-0.9846374497628667,1796341000000,
0.0912135814529872,-1.2359513177365422,-0.9840044372156498,1796346000000,
-0.12449676317490914,-1.041975873467852,-0.9828578620657288,1796351000000,
0.049140616009800575,-1.0440532907331745,-0.9825097762658691,1796356000000,
0.06924463588595646,-1.2289419255022156,-0.9829262606107638,1796361000000,
-0.10320690525154486,-1.0497621820488905,-0.9815878535507445,1796366000000,
0.0477348218136004,-1.037687939124749,-0.9818494962619723,1796371000000,
0.04734047572124539,-1.2278498093924093,-0.9816382887579816,1796376000000,
-0.12488108052354556,-1.0410843927969191,-0.9807484024143527,1796381000000,
0.06690270025569048,-1.050998400699405,-0.9810694652794087,1796386000000,
0.07592507965809771,-1.2224912879574057,-0.9808862460897625,1796391000000,
-0.12491855500711296,-1.0544319581286388,-0.9802864532441619,1796396000000,
0.04845205414856777,-1.047606081353507,-0.9808656412145463,1796401000000,
0.06055573799704428,-1.2094890798482414,-0.9808737349090854,1796406000000,
-0.1344115835516583,-1.0023168632987363,-0.9806153176445767,1796411000000,
0.025822561735499055,-1.0567562699772821,-0.9806694147799724,1796416000000,
0.056122326533187356,-1.2209829260284955,-0.9805489411622468,1796421000000,
-0.14488570166139347,-1.0161062552809916,-0.9793471233157794,1796426000000,
0.029148248480244852,-1.0163179963890203,-0.9799116658478659,1796431000000,
0.003723827858399838,-1.1878559848618422,-0.9803036634555606,1796437000000,
-0.08699577403201796,-1.0501704524512239,-0.9798724391289985,1796442000000,
0.06085292090697951,-1.0202686497214264,-0.980041812511866,1796447000000,
-0.020878330661973237,-1.1992637139370628,-0.9794360607422377,1796452000000,
-0.04358343440175973,-1.041238854445315,-0.9793563251751074,1796457000000,
0.0400147516023876,-1.0407074731604216,-0.9794667948784511,1796462000000,
-0.013521976489856199,-1.2134011842586239,-0.9792816473905922,1796467000000,
-0.046513286337834164,-1.101561359770858,-0.9788443964167183,1796472000000,
0.08193018260980876,-1.030806589431616,-0.9795759794190914,1796477000000,
-0.04360112828005212,-1.2389586777816837,-0.9797865081729422,1796482000000,
-0.05773197017417299,-1.0583239148187558,-0.9795034714846076,1796487000000,
-0.618600916947407,-1.1213252023797635,-0.9821588439776769,1796492000000,
0.6974542122854392,-1.1008284344623642,-0.9836208880041335,1796497000000,
-0.08057642192921434,-1.0754743718033384,-0.9838213961885734,1796502000000,
-0.6668094554583723,-1.1322708470691043,-0.986699717047016,1796507000000,
0.7534422051099411,-1.1796870579843153,-0.9895768074463727,1796512000000,
0.014375305441261425,-1.0096491813011412,-0.9895978572579084,1796517000000,
-0.8197267428348347,-1.1053387779957988,-0.99036288757989,1796522000000,
0.10340732145505688,-1.186791718954204,-0.9940377996935517,1796528000000,
0.7032585147261449,-1.1000673719883645,-0.9943878121880404,1796533000000,
-0.7175817361311201,-1.070296796012182,-0.9942098161020864,1796538000000,
0.0317594321449811,-1.15210896911749,-0.9967136584558551,1796543000000,
0.6138271398333055,-1.0886484712561257,-0.9969514743085912,1796549000000,
-0.6694373868422162,-1.1165960266106527,-0.9965967945696727,1796554000000,
-0.005903048925556088,-1.159073694546867,-0.9996007220711919,1796560000000,
0.7013040707999985,-1.0918541958759564,-0.9992884378820077,1796565000000,
-0.09079046833666145,-1.091965002772941,-0.998042498776822,1796570000000,
-0.7378101226327963,-1.2072188351775435,-1.0008351367210488,1796575000000,
0.8338008022521401,-1.0969695054101423,-0.999953829061841,1796580000000,
-0.06589114299518252,-1.0880702291942521,-0.998904059253856,1796585000000,
-0.6654369589161675,-0.9279111399774771,-1.0008886087044617,1796590000000,
0.8778446752051365,-1.2224816673112524,-1.0004112743546085,1796595000000,
-0.04542625583657706,-1.0701913010156714,-0.9999442881404176,1796600000000,
0.05683294124889748,-1.131314399911991,-0.9990149252112311,1796605000000,
-0.02502439120554137,-1.1015001485624292,-0.9982142504785205,1796610000000,
-0.06887374589111192,-0.9801344644841674,-0.9974485702038501,1796615000000,
-0.01791817429095934,-1.1131328534932388,-0.9970759821860343,1796620000000,
0.05422054637973649,-1.2959336904780911,-0.9960947445011383,1796625000000,
-0.028523916297077692,-0.9564539165674375,-0.9959429610394119,1796630000000,
-0.025777052678497007,-1.1467701746580754,-0.9962558170517709,1796635000000,
0.04498326986644975,-1.203162793934018,-0.9950714466916313,1796640000000,
-0.010044886166386647,-1.002967269569851,-0.9950794693470096,1796645000000,
-0.02581599831343499,-1.1530298660257634,-0.9948777042928082,1796650000000,
0.03329920446013947,-1.1824422915727586,-0.9941120166579797,1796655000000,
-0.04101291821010821,-0.9859927601854084,-0.9935591652400777,1796660000000,
-0.04318584195020207,-1.1458604337361098,-0.993918131534098,1796665000000,
0.04695624906694369,-1.1998791886370448,-0.9937513058726987,1796670000000,
-0.045771043571665414,-1.0340121959553876,-0.993525394607764,1796675000000,
-0.07586338472972999,-1.118444975616771,-0.9934101400985661,1796680000000,
0.043277094506779495,-1.1667752730800194,-0.9930381231414046,1796685000000,
-0.04163655096153977,-0.9678447315088248,-0.9928410325318,1796690000000,
0.01525218660711161,-1.2023846113971397,-0.9930612978505985,1796695000000,
0.0001385526388497458,-1.1221614403278009,-0.992390146881779,1796700000000,
-0.05659622922097014,-1.0387406188528239,-0.9926779245557649,1796705000000,
0.05317881213980081,-1.205581138962325,-0.9922559150526411,1796710000000,
-0.014793591805901741,-1.116922891100587,-0.9920731914924885,1796715000000,
0.003508061838136462,-1.02270245977882,-0.9915432682516605,1796720000000,
-0.05790135699844691,-1.1175279402444929,-0.9917154956073998,1796725000000,
0.038727884624534706,-1.1566469438037061,-0.991182943501145,1796730000000,
0.05108191588786969,-1.0447207354316397,-0.9908127690318825,1796735000000,
-0.09661526679732965,-1.1233915393830056,-0.9908185755336104,1796740000000,
0.05293847728980576,-1.1707357027354774,-0.9906362923286782,1796745000000,
0.028867048847008605,-1.0457400581871357,-0.9903823222912543,1796750000000,
-0.029259821453994393,-1.1869015885105016,-0.9906350999446475,1796755000000,
-0.04450847503261043,-1.1031382836114971,-0.9898207162939446,1796760000000,
-0.04651345433553385,-0.982592568473407,-0.9899934350929191,1796765000000,
0.011041362488757065,-1.1778207661964346,-0.9902570324035161,1796770000000,
-0.09967839702217701,-1.012529399748795,-0.9902700628070343,1796775000000,
-0.0013303597089747501,-1.1333534342221614,-0.9908504451764315,1796780000000,
0.05462918418206007,-1.142667246208343,-0.9901077892971365,1796788000000,
-0.027703445704172547,-1.0267368853664576,-0.9902993081036321,1796793000000,
0.05732242139775891,-1.1869975625145166,-0.9905393074320118,1796798000000,
-0.006638909007370227,-1.124268035094608,-0.9899877066963196,1796803000000,
-0.022669763507708822,-1.0278855776616433,-0.9900826194847044,1796808000000,
-0.5154105254978681,-1.18241094802454,-0.9903256947908161,1796813000000,
0.45406775735372623,-1.0128204738360413,-0.9931521871175746,1796818000000,
0.12658100568605085,-1.124323991123003,-0.9938571965470311,1796823000000,
-0.6657570961795962,-1.1080666389131775,-0.9950994894155677,1796828000000,
-0.21080046794755708,-1.0674147148702826,-0.9988706939808439,1796833000000,
0.7689547864654086,-1.15953273711398,-1.0008295055343688,1796838000000,
-0.7320455731845548,-1.1161384069840035,-1.0035792944615654,1796843000000,
0.006875642851074207,-1.0986101894536375,-1.0076075823666222,1796848000000,
0.7824388545766975,-1.1194321643947094,-1.0108909642435113,1796853000000,
-0.7249978644206038,-1.191775434841037,-1.01102132742943,1796858000000,
-0.20089691835900678,-1.1097762045528237,-1.0153393513415425,1796863000000,
0.6613276650682726,-1.1340430964351769,-1.0188782842942852,1796869000000,
-0.43397286014753206,-1.1608682308469922,-1.0189598530975386,1796874000000,
-0.18675029281869637,-1.1227944944298425,-1.0223139976972628,1796879000000,
0.8564430562978036,-1.159852740958487,-1.0247843815133104,1796884000000,
-0.6861696669908036,-1.1717002077798238,-1.0248677381632216,1796889000000,
-0.1813690707000995,-1.1241076633980618,-1.027779540403974,1796894000000,
0.743284892114541,-1.136416626623908,-1.0293839923944927,1796899000000,
-0.6453807992861588,-1.176006547580082,-1.0289055538811427,1796904000000,
-0.17976266596334195,-1.110670008346042,-1.0318544838051957,1796909000000,
0.7609303854049332,-1.206419725193908,-1.0328736608776654,1796914000000,
-0.6432161398365582,-1.1145574202565307,-1.031890698173995,1796919000000,
0.5936686086442847,-1.1348941874274547,-1.032799034446918,1796924000000,
0.052992296262442055,-1.1848635330422284,-1.0306768383168459,1796929000000,
0.07773435164524714,-1.1552250183082082,-1.028168049337435,1796934000000,
-0.07367773272333414,-1.1584260019874202,-1.0274667081291333,1796939000000,
-0.049812727292957666,-1.164909462810184,-1.0254750718199668,1796944000000,
0.06535464376802182,-1.1215837181830048,-1.0230817658404086,1796949000000,
0.10762853031883643,-1.1425938037000394,-1.0199272800636308,1796954000000,
-0.25547692950899664,-1.1917619885473683,-1.0173948503617163,1796959000000,
0.13068586578136826,-1.0392603448606126,-1.0159187281390374,1796964000000,
0.12599745798309642,-1.167072100198269,-1.0140225732515102,1796969000000,
-0.017986729567480073,-1.1179479211711532,-1.0113217847951277,1796974000000,
-0.12947877593025447,-1.0767371779416397,-1.010286436909405,1796979000000,
0.07455464320551614,-1.1416489863309986,-1.0085629492551105,1796984000000,
-0.013069167473633611,-1.1153673033755611,-1.0067363128839797,1796989000000,
-0.2233892374810001,-1.1085315695420166,-1.0052629564180489,1796994000000,
0.15641301714339811,-1.131019885228892,-1.0043789608312184,1796999000000,
0.03280075480476034,-1.1051320192228582,-1.0029215333636368,1797004000000,
-0.11830549397689531,-1.060845526366483,-1.0017296110497913,1797009000000,
0.12931783206403868,-1.157189104429603,-1.0007765157527477,1797014000000,
-0.033423081641221486,-1.126016134961225,-0.9998759931160195,1797019000000,
-0.12248107862642078,-1.0918909215384522,-0.9985492288007896,1797024000000,
0.11588026083450291,-1.1734234715484733,-0.9975388852834927,1797029000000,
-0.004838726994204703,-1.1275697428756288,-0.9969916835210632,1797034000000,
0.014842190687972961,-1.0477319340341318,-0.995880141294925,1797039000000,
-0.014107180253245054,-1.1378798467876958,-0.9948535894143415,1797044000000,
0.048517289157322514,-1.1529403173679558,-0.9937039755084295,1797049000000,
-0.04218595531789956,-1.134986757174029,-0.9929460801226799,1797054000000,
-0.08817057020427839,-1.0613188445429265,-0.9932164529138713,1797059000000,
0.061357148558829316,-1.1655266244451388,-0.9928174647444089,1797064000000,
-0.1182259797506706,-1.0999420702986316,-0.9925299999929105,1797069000000,
0.008944448213225216,-1.0577183579856844,-0.9921686760310204,1797074000000,
0.06017626022991909,-1.1449508782701165,-0.9914387163927008,1797079000000,
-0.06062019560028321,-1.0654750531088277,-0.9911924074980499,1797084000000,
0.04643830026456425,-1.1869350000715564,-0.9912431207313179,1797089000000,
0.01367491170343419,-1.1416769088791034,-0.9910070016027425,1797094000000,
-0.06266863316958185,-1.0459228033062746,-0.9906435909408143,1797099000000,
0.05114177254102905,-1.1462409775827318,-0.9903056786754666,1797104000000,
-0.19430999660076376,-1.072149817031275,-0.992393980340233,1797109000000,
0.10185308958029653,-1.078405423519759,-0.9934289503962193,1797114000000,
-0.023087619358062403,-1.1683549832545939,-0.9936955760038189,1797119000000,
-0.7308799814659834,-1.0704315703669318,-0.9971381877435109,1797124000000,
0.7093574308382816,-1.1484090800915103,-0.9988462684229759,1797129000000,
-0.6148569476828196,-1.1791290580175549,-0.9999288950957791,1797134000000,
-0.11344681499144656,-1.0778261001674552,-1.0031921296937123,1797139000000,
0.6056735736663977,-1.1191093884259786,-1.0064057694488293,1797144000000,
0.05175833933386324,-1.1897182300974025,-1.0071330645806449,1797149000000,
-0.8124704754184918,-1.1091766333471635,-1.010717428737534,1797154000000,
0.04703157985789841,-1.0366842778371086,-1.0147692109812976,1797159000000,
-0.024451690479311197,-1.1804894380388014,-1.017836233229666,1797168000000,
0.00969019203750051,-1.1014937423646118,-1.020329129584454,1797173000000,
0.525692545536745,-1.1093839114809898,-1.0240302987125312,1797178000000,
0.30559697602565516,-1.160715543456011,-1.0237854230343715,1797183000000,
-0.9283536504591106,-1.1962800792893649,-1.0256207200195666,1797188000000,
0.6711140879353561,-1.1456407551362464,-1.0283884920042192,1797193000000,
0.1381524878752778,-1.2361135508799546,-1.027264036257998,1797198000000,
-0.8557715800938985,-1.104874025278829,-1.029268598554834,1797203000000,
0.7475706412993978,-1.1215915121325493,-1.0311801487987968,1797208000000,
0.24292084369348066,-1.2398417742470913,-1.0300043285217895,1797213000000,
-0.9584229959651427,-1.1031144125393408,-1.028806859293586,1797218000000,
0.9342379138036356,-1.1481733605117024,-1.0294429380915235,1797223000000,
-0.06051771129508624,-1.2164821837240662,-1.0265589434864022,1797228000000,
0.030837107956618863,-1.1226925547627276,-1.0242661442911205,1797233000000,
-0.7968496576870852,-1.1224961710479429,-1.0237727792074682,1797238000000,
0.5877607164897418,-1.1878177623986435,-1.021497579433667,1797243000000,
0.07013429103021641,-1.0664323773736595,-1.0194198625158681,1797248000000,
0.13277740677981437,-1.1561280848755082,-1.0170776319201191,1797253000000,
-0.1340097604990173,-1.190143916360933,-1.0150558573614168,1797258000000,
-0.05147476368849105,-1.073832674617321,-1.0127599579073598,1797263000000,
0.12579900148122838,-1.0955653965869532,-1.0103928553799464,1797268000000,
0.004328052224234054,-1.1101729501037252,-1.008292047571098,1797273000000,
-0.08463931135846013,-1.116922577200555,-1.006673954776352,1797278000000,
0.09701713267055942,-1.1614394691470964,-1.0053467890110186,1797283000000,
0.01214654060997445,-1.1399535856565706,-1.0028841229781018,1797288000000,
-0.12073696106511117,-1.1203297959257454,-1.0021274834318188,1797293000000,
0.05054643714123078,-1.1573859754788272,-1.000775816105981,1797298000000,
0.07451132905796479,-1.1363516502556081,-0.9995222900607676,1797303000000,
-0.10389624191576269,-1.0725933718648926,-0.9981031363843998,1797308000000,
-0.019333703136291663,-1.1513947664701536,-0.9969551509917862,1797313000000,
0.09890236686385945,-1.0994453468487293,-0.9961737726712119,1797318000000,
-0.08045368065778805,-1.0736744189904588,-0.9954776561408568,1797323000000,
-0.013624623281740423,-1.1591849371033576,-0.9953154586242545,1797328000000,
0.10385763656820249,-1.1680374077205318,-0.9940400654636798,1797333000000,
-0.07714974569147892,-1.0340132711112537,-0.9937948703901595,1797338000000,
0.025051289323625762,-1.1646967514129576,-0.9926115010697747,1797343000000,
0.05620932899513087,-1.1241725321403044,-0.992266268842552,1797348000000,
0.03809967845535456,-1.0781605936728509,-0.9921248813634882,1797353000000,
-0.040617448611592236,-1.1251206170392454,-0.9916560881372564,1797358000000,
-0.043453672869304155,-1.113928830544915,-0.9910252240890604,1797363000000,
0.07592880014610313,-1.0974541114858056,-0.9906374306107301,1797368000000,
-0.07324493808210103,-1.1035169413571944,-0.9901788058882971,1797373000000,
0.04110712346784695,-1.1300465779531954,-0.9896841825653526,1797378000000,
-0.06626423379380647,-1.0414947204900113,-0.9895122065826193,1797383000000,
-0.005092982502064011,-1.186143767466684,-0.9894995532716986,1797388000000,
0.15146779829561646,-1.1154792508790952,-0.9890012013226971,1797393000000,
-0.09991641063644648,-1.0369805723336523,-0.9888792777928646,1797398000000,
-0.0006234848837779377,-1.1738901155556711,-0.988777218467753,1797403000000,
0.07790205700224162,-1.1081465165618978,-0.9889944794303099,1797408000000,
-0.052230918982802826,-1.0487515125292661,-0.9884724462876479,1797413000000,
0.024791941137158033,-1.1317950656193327,-0.9883373601340595,1797418000000,
-0.01178699977775539,-1.0783617606423084,-0.9883196177066776,1797423000000,
0.12636663799522674,-1.1210918017923057,-0.9880584531648228,1797428000000,
-0.10303035976451234,-1.0346648670073058,-0.9883080854066494,1797433000000,
-0.0740606381794226,-1.0950918017894486,-0.9877430894776336,1797438000000,
0.08316084093332834,-1.0889454582551439,-0.9877479499730879,1797443000000,
-0.06803200401726849,-1.0706236569439134,-0.987180988044303,1797448000000,
-0.02628389583552439,-1.1464613464755338,-0.987619917257556,1797453000000,
0.10130139039663186,-1.144199940671418,-0.987491128910633,1797458000000,
-0.02206062227834095,-1.0426310486886194,-0.9870475725086922,1797463000000,
-0.05352636334833502,-1.1353308991889188,-0.986799727493388,1797468000000,
-0.5963784752004956,-1.0665438114384644,-0.9883618686596829,1797473000000,
0.6017687543253221,-1.0606514216498686,-0.9904268116902659,1797478000000,
0.028641160423713154,-1.16288051938951,-0.990860778143116,1797483000000,
-0.6526580428327057,-1.122828516881248,-0.9919431295435365,1797488000000,
0.39820634667373817,-1.0515155742664588,-0.9956123336440708,1797493000000,
0.1577085543248137,-1.1324164754374244,-0.9968543827540636,1797498000000,
-0.6019493770059242,-1.1464604345340843,-0.9973159885083576,1797503000000,
-0.155891992839726,-1.098923379629182,-1.0011623154276683,1797508000000,
0.6455911054866331,-1.148752203080928,-1.0047021262057525,1797513000000,
0.10177065932797445,-1.1691927959099297,-1.0050427362556908,1797518000000,
-0.6553899545242009,-1.1000266734336233,-1.0082090620870743,1797523000000,
0.7717653131142291,-1.097258021577425,-1.0103279758152217,1797528000000,
-0.021524100995085567,-1.151471573100318,-1.009760222451554,1797533000000,
-0.8344695553751538,-1.1105859780567355,-1.0130967110326763,1797538000000,
0.7168399468126934,-1.069849774880209,-1.0146048271712382,1797543000000,
0.0643503677932187,-1.1785366907002497,-1.0137572041246892,1797548000000,
-0.8832202140107296,-1.1164157038564877,-1.0168228566889368,1797553000000,
0.7744087862402063,-1.0777588860379674,-1.0183865809934354,1797558000000,
0.05053102854045675,-1.2285156182728856,-1.017087546053352,1797563000000,
-0.7725854520913417,-1.114651118768291,-1.018927542153005,1797568000000,
0.9248836016352143,-1.0923609278433313,-1.0201876861787214,1797573000000,
0.11120507568303685,-1.156082599953392,-1.0194968956729686,1797578000000,
-0.92434905824426,-1.1457915844440396,-1.0186832567570865,1797583000000,
0.6661976658411121,-1.0908109298740987,-1.0201540579443458,1797588000000,
0.24057655199144817,-1.1756224777134257,-1.0188769186567603,1797593000000,
-0.6135114767768919,-1.1543708237822583,-1.0167838413016996,1797598000000,
0.5246613442237275,-1.1009446590415128,-1.016533939375397,1797603000000,
-0.008004455595962004,-1.1815391717195312,-1.0143484745827387,1797608000000,
0.08873549068004159,-1.1247080286575561,-1.0121954740709789,1797613000000,
-0.011835042762421128,-1.154566582710725,-1.0101655004280141,1797618000000,
-0.2118868650822035,-1.062493846487146,-1.0076878194570202,1797623000000,
0.16487755583967856,-1.1649088710811033,-1.0060316295815233,1797628000000,
0.07362218829240298,-1.0883474535814635,-1.0045857309781425,1797633000000,
-0.04278311094799689,-1.2423500855695262,-1.0021775123304548,1797638000000,
0.014187567620863678,-1.05104066275592,-1.0004297003899032,1797643000000,
0.03357840109236847,-1.0563545040271856,-0.9997153242420833,1797648000000,
-0.09708925970120326,-1.2460036587860481,-0.9979788485903546,1797653000000,
0.06627675198570088,-1.0705697522170559,-0.9965850887856937,1797658000000,
-0.028491127595490107,-1.1383005455123647,-0.9951239300861223,1797663000000,
-0.000480791482328294,-1.1730058207433627,-0.9940181186472392,1797668000000,
0.03876513687195987,-1.0514235781626986,-0.9929963336514649,1797673000000,
-0.010632306203505665,-1.142138102302828,-0.991731956853713,1797678000000,
-0.08844872089525033,-1.054410994255554,-0.99071401282569,1797683000000,
0.08912150156082149,-1.1313789524191202,-0.9899905694116321,1797688000000,
0.0839356801304328,-1.1267676097218295,-0.9895838292258503,1797693000000,
-0.1050070421043019,-1.1131733314247125,-0.9887910900758407,1797698000000,
-0.03435840560653136,-1.099418844491787,-0.9878747897361287,1797703000000,
0.07021371481931436,-1.0502071987975206,-0.9877690614672819,1797708000000,
-0.11293231728046499,-1.0748703041728596,-0.9873687903965158,1797713000000,
-0.011006304749974938,-1.166068221628398,-0.9871115675322599,1797718000000,
0.07269683984859379,-1.078558818108539,-0.9871938669682401,1797723000000,
-0.0798856124010769,-1.0767738294735003,-0.986641679850648,1797728000000,
-0.009633932325449523,-1.1265988712066775,-0.9868239317251842,1797733000000,
0.0681463306138354,-1.1080689220485018,-0.9869577526726386,1797738000000,
0.039533589464994814,-1.0307656687203741,-0.9866718968235928,1797743000000,
-0.11056191315214578,-1.1630611488932112,-0.9865724550920698,1797748000000,
0.05177110284453448,-1.1324546264634994,-0.9862588641043271,1797753000000,
0.10091595522709705,-1.1051019678864697,-0.9865676882609516,1797758000000,
-0.09561877752357882,-1.152039015372345,-0.9863878571693052,1797763000000,
-0.09504411589014301,-1.1181383282187947,-0.9856740302392322,1797768000000,
0.06801345209486087,-1.035128208160693,-0.9862958419364262,1797773000000,
-0.02953356411513317,-1.1500115848348622,-0.9857149578803861,1797778000000,
-0.04604582932207951,-1.0915605929636567,-0.9851387954897,1797783000000,
0.04447698222617106,-1.0353799982385206,-0.9853135959539476,1797788000000,
-0.024668500404382503,-1.1425930469945735,-0.9846943595061032,1797793000000,
-0.060656393480700684,-1.1152151059816713,-0.9841240047998008,1797798000000,
0.09001990552854412,-1.0435764983596612,-0.984237141565,1797803000000,
-0.08825077044681763,-1.104668570278011,-0.9846742217307536,1797808000000,
-0.001638965063400756,-1.1260901387968054,-0.9845964828096144,1797813000000,
0.12248588147162881,-1.05028862816611,-0.9846851800863781,1797818000000,
0.011450624738562414,-1.1400580707425285,-0.9842084796829266,1797823000000,
-0.1137930249469285,-1.1850171207170592,-0.9841383203582531,1797828000000,
-0.45908793005614595,-1.0657610983528565,-0.9850219882471499,1797833000000,
0.36541788840999306,-1.1181050765358063,-0.9869017931388419,1797838000000,
0.10958969560647008,-1.135478044920555,-0.9880957773066914,1797843000000,
-0.5870486736593583,-1.1181558840369632,-0.9885878733025044,1797848000000,
0.31706159869016415,-1.0946295475677983,-0.9924144038255629,1797853000000,
0.23008777689814694,-1.0880439448988328,-0.993527051109587,1797858000000,
-0.7154004283529365,-1.1299689745124541,-0.9951853091363938,1797863000000,
0.009911124162955278,-1.0640239607628705,-0.9985595547575007,1797868000000,
0.597540060539468,-1.0847462316170189,-1.0019441120434953,1797873000000,
-0.450772681258522,-1.1558725926479954,-1.003454910218772,1797878000000,
-0.13318509663007366,-1.1220847397545268,-1.0066367020374583,1797883000000,
0.6383079305839261,-1.1044788725008277,-1.0087501479754233,1797888000000,
-0.6094882899243044,-1.174063773969164,-1.0088608195255289,1797893000000,
-0.192801947801743,-1.1232554095114482,-1.0119114406411374,1797898000000,
0.754144670924818,-1.0951922480750913,-1.0138077491815816,1797903000000,
-0.6100493942722027,-1.1606976737189594,-1.0133883463244766,1797908000000,
-0.19072858516254243,-1.1470955476769804,-1.0161646383515002,1797913000000,
0.8642057016366808,-1.15731201792909,-1.0161829654348769,1797918000000,
-0.7030267387007719,-1.1288399306105115,-1.015280879765768,1797923000000,
-0.15141038639888701,-1.1236977045846688,-1.0175387861264793,1797928000000,
0.6778519365043979,-1.098708776828321,-1.017569644908362,1797933000000,
0.04698113912747498,-1.1618399068447638,-1.0158976555649855,1797938000000,
-0.20116340967878085,-1.134988157383214,-1.0173193324763132,1797943000000,
0.2727098920526334,-1.1541547454711896,-1.015484439878525,1797948000000,
-0.052442110373874404,-1.1503959333618523,-1.0129866658468374,1797953000000,
-0.537887814167043,-1.0835721460608616,-1.0109338053885497,1797958000000,
0.5467667583567838,-1.1645036181536939,-1.0102536852761002,1797963000000,
0.009960964115872498,-1.1153618420193625,-1.0078974103099503,1797968000000,
-0.006194710281641381,-1.1524888856070952,-1.005471936835988,1797973000000,
0.18607875927370016,-1.0864536508872062,-1.004052086865437,1797978000000,
-0.1638070696009264,-1.1809723833578807,-1.001396485014456,1797983000000,
-0.06110219374161553,-1.1247858996845357,-0.9990913872098977,1797988000000,
0.10520880482293923,-1.0873998942378225,-0.9976481983954619,1797993000000,
-0.0757568601871069,-1.1834040781064141,-0.9957333345731448,1797998000000,
-0.03385057664392639,-1.1259694432070997,-0.9941929167847079,1798003000000,
0.12054202610994796,-1.0572672600115276,-0.9927140414871757,1798008000000,
-0.06325608598816601,-1.1642779411809925,-0.9920398808016769,1798013000000,
-0.008836098346522901,-1.1126111327693506,-0.9905226274961689,1798018000000,
0.023613081158235568,-1.0435722454263154,-0.9897210705903745,1798023000000,
-0.018052346958214636,-1.1535716936876959,-0.9893126752437297,1798028000000,
-0.031249856720093918,-1.1004849645937718,-0.9878514645143414,1798033000000,
0.008705828158538678,-1.0369831577643183,-0.9869158921789352,1798038000000,
0.06159375462529716,-1.0988679717658005,-0.9869769568105303,1798043000000,
-0.07332961174173044,-1.1751032247834043,-0.9864098430377201,1798048000000,
-0.03502080397640201,-1.1102282846927343,-0.9855578545659661,1798053000000,
0.13939145880411918,-1.0349411388953933,-0.9857487715695405,1798058000000,
-0.10416495600080815,-1.173448075866188,-0.9849988856138627,1798063000000,
-0.045385818148165114,-1.082972298218859,-0.9843717344034979,1798068000000,
0.06844032569939934,-0.9975789426006563,-0.9840224020982038,1798073000000,
-0.12628990870803614,-1.2144149542364588,-0.9842756730596414,1798078000000,
0.038619617610154866,-1.1222330706152457,-0.9833621329819144,1798083000000,
0.08077194794286859,-0.9949348165489204,-0.9839153253674089,1798088000000,
-0.007539455447159437,-1.2066787771775995,-0.9837397883278156,1798093000000,
-0.09228653660885465,-1.0827927530723456,-0.9833201408095678,1798098000000,
0.06530744875588311,-1.0196139828485118,-0.9829559973942203,1798103000000,
-0.11962316603259651,-1.1974965950689431,-0.9834987214155124,1798108000000,
0.03640729413101986,-1.1112479780963251,-0.9832606809714144,1798113000000,
0.06680685807713789,-1.0272355442409749,-0.9829161569309568,1798118000000,
-0.08055579792985186,-1.168232161564684,-0.9835386354057544,1798123000000,
0.029357352907565804,-1.0934841301644427,-0.9831308844102862,1798128000000,
0.06598489867026831,-1.0304388367579713,-0.9828376406003378,1798133000000,
0.026406661283297897,-1.074326937626934,-0.9837948095605686,1798138000000,
-0.04317157605120962,-1.2685683236526166,-0.9830726146726079,1798143000000,
-0.07575025217973086,-1.113960432902814,-0.9822798700458455,1798148000000,
0.06214836174090891,-0.9399709584608703,-0.982611938172231,1798153000000,
0.03163250223380857,-1.2491311895859487,-0.9825161189201278,1798158000000,
-0.049592009205753435,-1.067620006574323,-0.9822354194197498,1798163000000,
0.060350919267564834,-1.039166062682843,-0.9822073268711143,1798168000000,
-0.10251582065125997,-1.0687160981980701,-0.9826522256495087,1798173000000,
0.03273800160358898,-1.0807230841029472,-0.9833359795323301,1798178000000,
0.03100835231542752,-1.1705797156339806,-0.9842573404669754,1798183000000,
-0.05677192136264032,-0.9527961017296827,-0.9845042307408212,1798188000000,
0.0012585978552406528,-1.0777527697906648,-0.9853666650494893,1798193000000,
0.00424882395257121,-1.311285443818914,-0.9860888488348908,1798198000000,
0.10205868648791143,-1.0723948890872972,-0.9858152370389872,1798203000000,
-0.06968319251997945,-0.9788404164177557,-0.9868896275446866,1798208000000,
-0.04221009980462766,-1.118008823260161,-0.9877542744648683,1798213000000,
0.03797475064854973,-1.2106978714430239,-0.9881068152623823,1798218000000,
0.05606414845693585,-1.0090730449257945,-0.9882949997254905,1798223000000,
-0.08576072856496293,-1.1251974583761422,-0.9887713439269871,1798228000000,
0.051366820705279065,-1.203805462907682,-0.9887331514403832,1798233000000,
0.020102114629892563,-1.0578195934928165,-0.9888296088087762,1798238000000,
-0.0972585270722085,-1.1202143164139713,-0.9894498928167622,1798243000000,
0.01884138648755115,-1.1921591129333746,-0.9892313960427678,1798248000000,
0.046170377523278315,-0.9600510412477405,-0.9892770042323362,1798253000000,
-0.03757869790665953,-1.1709951951961972,-0.989063024309194,1798258000000,
-0.2552992639578774,-0.9771315667968469,-0.9913180011317251,1798263000000,
0.21936182203274424,-1.0975780235170733,-0.9927060328725271,1798268000000,
-0.07830735398931402,-1.1342636982869492,-0.9934113032043959,1798273000000,
-0.7786978183422657,-1.0778130507792736,-0.9971762112200762,1798278000000,
0.6694963231542289,-1.1805373935029169,-1.0006801071303846,1798283000000,
-0.5050917614315333,-1.0973013998022192,-1.0026814573846088,1798288000000,
-0.22600485239843313,-1.0843483266603458,-1.0061823884035759,1798293000000,
0.5929830395447675,-1.1935884924035574,-1.0103034974644034,1798298000000,
-0.7464259537117791,-1.1070594398594442,-1.0121691028749362,1798303000000,
0.006391035602636612,-1.130311399208182,-1.0170088507414388,1798308000000,
0.7873095174625732,-1.1975906681536488,-1.0184885951706655,1798313000000,
-0.9074609807913321,-1.147536039423618,-1.0195669436418824,1798318000000,
0.009120941190699354,-1.1319793867559635,-1.0233041409229688,1798323000000,
0.6952375605515371,-1.1872834633697653,-1.0253860993099129,1798329000000,
-0.8933320699377537,-1.1281883278742353,-1.0257239988579083,1798334000000,
-0.031743755096881564,-1.117561288264216,-1.0290671967210814,1798339000000,
0.9298954022905122,-1.1891749679737504,-1.0311710320972938,1798344000000,
-0.7489497211624244,-1.1393165424240235,-1.0299331615897795,1798349000000,
-0.21773784860292728,-1.1221899905288681,-1.0331757079022117,1798354000000,
0.8690577528873428,-1.190232436535739,-1.0335910836236262,1798359000000,
-0.7486595129828986,-1.1086607831922384,-1.0322689781929106,1798364000000,
-0.15693739369092732,-1.1480825502650585,-1.0350874965586938,1798369000000,
0.7365536113396841,-1.1950870334873662,-1.0336039912696966,1798374000000,
-0.9738879515637248,-1.1081120659900745,-1.0343903619596664,1798379000000,
0.7806947680475206,-1.1843789495135892,-1.0360907360746499,1798384000000,
0.2592940252155686,-1.162892668159342,-1.0345152643471522,1798389000000,
-0.8619836286008867,-1.1866040668755886,-1.03375226582896,1798394000000,
0.8799520130561636,-1.0943217094848268,-1.0327312909911697,1798399000000,
-0.0816748452117009,-1.1701038412908675,-1.0302403262964668,1798404000000,
0.15480707153006457,-1.213881902339714,-1.0281567403076877,1798409000000,
-0.10184339822511934,-1.1261722661868925,-1.024148887886656,1798414000000,
0.010869208949002587,-1.0859650790479292,-1.0211455044820725,1798419000000,
0.10071138150732312,-1.1847280533762357,-1.0184998849187221,1798424000000,
-0.05307973446907314,-1.056038602251442,-1.0155974805434251,1798429000000,
-0.11496818898820026,-1.1542400072851402,-1.0135265541479976,1798434000000,
0.14262024564331346,-1.2019744356793138,-1.0111632356134894,1798439000000,
-0.025846557850907427,-1.0319635662397584,-1.0086788347020765,1798444000000,
-0.016373358168655306,-1.140194387243458,-1.0069752021614113,1798449000000,
0.05739415292896345,-1.1397551518076185,-1.0048133639018026,1798454000000,
-0.02562648961239003,-1.0345969283679906,-1.003128509869422,1798459000000,
-0.035860802338535266,-1.211870440247759,-1.0018161818006892,1798464000000,
0.14839296304325164,-1.0733920341526144,-1.0004754102049056,1798469000000,
-0.13815365248511904,-1.0667515820678486,-0.9989841354747381,1798474000000,
0.055338239223851574,-1.213842169582977,-0.9979049281042184,1798479000000,
-0.008153666168038946,-1.0455374210256092,-0.9969250456781693,1798484000000,
0.004879569587694907,-1.1643782018023179,-0.9955307193350099,1798490000000,
0.06466302398661217,-1.0831487151429873,-0.994351272118641,1798495000000,
-0.06983134599253542,-1.0030196420000919,-0.9943319659683595,1798500000000,
-0.00308957137276352,-1.211642368383192,-0.9936587747082272,1798505000000,
-0.018415787199925992,-1.131861748561309,-0.9930407078635578,1798510000000,
-0.06211110507892925,-1.0198931912029543,-0.9927122633875195,1798515000000,
-0.01747567056475761,-1.1539564648696767,-0.9918368379961942,1798520000000,
0.07803745374761585,-1.1947593031614596,-0.991649026582174,1798525000000,
-0.035712033112431506,-1.0442911699416921,-0.9906682693950449,1798530000000,
-0.007081852105205401,-1.1411818921622654,-0.9909089990319156,1798535000000,
0.03370116226883002,-1.164772999993363,-0.9904076748021479,1798540000000,
0.0032252553242300627,-1.0656446262863666,-0.9898888541739017,1798545000000,
-0.09046732272027795,-1.0837202628799745,-0.9899654373645277,1798550000000,
0.04327331570098778,-1.1333179385540124,-0.9900568336463418,1798555000000,
0.1318123239351187,-1.0553245811319054,-0.9896881216607379,1798560000000,
-0.18055957306265424,-1.138670944272592,-0.9891239724687348,1798565000000,
0.0745909561259372,-1.1840452272671287,-0.9891873699406959,1798570000000,
0.14038508430930463,-1.087104135959072,-0.9882221430214836,1798575000000,
-0.21750062754200034,-1.0994000133223336,-0.9887055912193832,1798580000000,
0.07993555125291957,-1.1749952606592473,-0.9886366869940766,1798585000000,
0.0556537467426482,-1.030770843981816,-0.9881811361111426,1798590000000,
-0.09029633345218332,-1.1524536905595357,-0.9880872038959486,1798595000000,
-0.6170719022574721,-1.1125342481911074,-0.9903581191814456,1798600000000,
0.6171769182696002,-1.04426900012524,-0.9927424184340646,1798605000000,
0.006989115733732006,-1.1519377512390097,-0.993998940902071,1798610000000,
-0.6382066524482775,-1.1596432495954083,-0.9971166270660371,1798615000000,
0.5232486033213872,-1.0896577055274772,-1.0012194550651623,1798620000000,
-0.5466003053894289,-1.102634114679729,-1.0027978302052125,1798625000000,
-0.16456101226036782,-1.1228894031348522,-1.0065900510822843,1798630000000,
-0.08724549019844906,-1.1155208420812321,-1.0115842767081626,1798635000000,
0.6874978293060088,-1.1986567124556684,-1.0147330773146492,1798640000000,
-0.7112134822149101,-1.111543668429445,-1.018208145907487,1798645000000,
-0.05605007031216068,-1.0993457326932252,-1.0218172882275456,1798650000000,
0.8162003999082779,-1.1611550062115736,-1.0237669988479678,1798655000000,
-0.8346106354526942,-1.1385403733835457,-1.0262796700460846,1798660000000,
-0.0781948391692032,-1.139528582762882,-1.0299596161507838,1798665000000,
0.9034376359831418,-1.1788206099555085,-1.0303189059651192,1798670000000,
-0.9649419727021221,-1.097413165242496,-1.0315637334887093,1798675000000,
0.014142961404970565,-1.1120492808522127,-1.0343889201732996,1798680000000,
0.8700029133979407,-1.1985317699233913,-1.0342717650545576,1798685000000,
-0.96344385131049,-1.1675252395522104,-1.0349398608432143,1798690000000,
0.026096906382517444,-1.1578464038529752,-1.0374986873808536,1798695000000,
0.7800913166509964,-1.1419981655442495,-1.0352888079115659,1798700000000,
-1.277098777610781,-1.1825161143838752,-1.035230271041749,1798705000000,
0.8199894273820049,-1.1766448228871025,-1.0370548543428177,1798710000000,
0.16587321850214942,-1.1990112021015231,-1.0344251197998642,1798715000000,
-0.6883142736171859,-1.19410150341759,-1.0344308702217948,1798720000000,
1.0755421771295297,-1.062363138746712,-1.0319470374737174,1798725000000,
-0.05894640737622408,-1.1650062275184236,-1.0278171992796135,1798730000000,
0.12608239797120618,-1.233944761721357,-1.0250139720518685,1798735000000,
0.016442757098437545,-1.1034888742542972,-1.02148908721027,1798740000000,
-0.17550430955308402,-1.1416408350613148,-1.0175779081035046,1798745000000,
0.09964185732806918,-1.2065575728996418,-1.0146214830422002,1798750000000,
0.04688246048500166,-1.1423346590963943,-1.0113516960059081,1798755000000,
-0.10614941308797883,-1.1150651094785509,-1.0091951008783322,1798760000000,
0.06888830000305259,-1.1601295589267053,-1.0069558343282476,1798765000000,
0.08184204087510874,-1.0603025448121486,-1.005246541546242,1798770000000,
-0.1722221328079113,-1.159644737615859,-1.003031040704362,1798775000000,
-0.05368199047855802,-1.159895533226991,-1.001642710089284,1798780000000,
0.15960044236947615,-1.0839688349203807,-1.000066258428753,1798785000000,
-0.1447421488081512,-1.0959827069510841,-0.9986246169121817,1798790000000,
-0.011497874562869565,-1.156561268884345,-0.9978884105359103,1798795000000,
0.12651624309505993,-1.1452286401602219,-0.9967046644727714,1798800000000,
-0.07345937183267927,-1.0445615985446943,-0.9960220073924975,1798805000000,
-0.018745286514192334,-1.14593582785331,-0.9948997232089982,1798810000000,
0.21268575425401093,-1.145461824963322,-0.9943431789763066,1798815000000,
-0.1934924433712735,-1.1041337045438766,-0.9935692406573292,1798820000000,
-0.003909239237622523,-1.1197376125729992,-0.9932556248375782,1798825000000,
0.1293144197394572,-1.068724477949621,-0.9923718315256121,1798830000000,
-0.07968147167992548,-1.1246832842611236,-0.991551527626738,1798835000000,
0.034999117175680106,-1.1391893122277346,-0.9910284915243722,1798840000000,
0.0499320021964432,-1.0469571410739578,-0.9905217688286634,1798845000000,
-0.0967758609701824,-1.1226462930664582,-0.9898500469022524,1798851000000,
0.09307245393150958,-1.109711738221369,-0.989668043341569,1798856000000,
-0.07920432656694527,-1.1225278504678333,-0.98919178602125,1798861000000,
-0.009740993924622706,-1.1316932675410782,-0.9888781710854258,1798866000000,
0.06432549943431246,-1.11721763234818,-0.988673540938369,1798871000000,
-0.03647517674814177,-1.0984277456700189,-0.9886653029009522,1798876000000,
-0.022129310006975586,-1.0950419047300952,-0.9886221113233882,1798881000000,
0.06729984602312834,-1.1408796676640456,-0.9887796652762902,1798886000000,
-0.06409677309275802,-1.090202260210718,-0.9887373863949502,1798891000000,
-0.020220617043128806,-1.0950207327664485,-0.9882084898253953,1798896000000,
0.04780748036549077,-1.1208830553437708,-0.9885002001813118,1798901000000,
-0.05714361471275769,-1.070195137437259,-0.9881022784248786,1798906000000,
-0.04276791186602353,-1.097841477107425,-0.9882216985501581,1798911000000,
0.037554038205208,-1.1460301713609262,-0.9877767739806144,1798916000000,
0.03835394581487867,-1.112062184014566,-0.9877973350069703,1798921000000,
-0.13902485003761103,-1.1068837497769761,-0.9877239839751665,1798926000000,
0.03749173266763646,-1.1115760016890088,-0.9877089754055359,1798931000000,
0.06800746449995317,-1.113436788482349,-0.9873973487686489,1798936000000,
-0.14305856378863704,-1.144299770814703,-0.9868708019660946,1798941000000,
0.05535786131898596,-1.0738551133049827,-0.9872380307095547,1798946000000,
0.012063145961244894,-1.111964717469616,-0.9867282594333655,1798951000000,
-0.14304742589185745,-1.045057287665948,-0.9865064948258283,1798956000000,
0.05646612546169299,-1.1380209918358655,-0.9869794841002503,1798961000000,
0.05640349232516727,-1.0958308686937175,-0.9867334119648822,1798966000000,
-0.13176997851319674,-1.118616729204169,-0.9867280123013806,1798971000000,
0.08135018878693188,-1.098045813229914,-0.9867659237132553,1798976000000,
0.03486070961443957,-1.0812719242155246,-0.9870295145633278,1798981000000,
-0.06665702235158714,-1.16381171416251,-0.9866430335432044,1798986000000,
-0.5007220097877652,-1.0934136789319675,-0.9879178742235235,1798991000000,
0.4773151382148575,-1.1249302226177396,-0.9906460752801886,1798996000000,
0.1669178071241305,-1.0996675337456623,-0.9920902877103641,1799001000000,
-0.5965922942906555,-1.1042854033043485,-0.9930922900686782,1799006000000,
-0.12351189859216899,-1.1716584201818883,-0.9972051980925283,1799011000000,
0.4404180769228001,-1.1263367294450748,-1.0021162478103232,1799016000000,
0.29234077646039375,-1.0942370395019445,-1.003784672253051,1799021000000,
-0.7705967013702678,-1.0830835844445814,-1.0067926536174896,1799026000000,
0.6195027003683723,-1.1994537868710349,-1.0098432992103465,1799031000000,
0.12059088330421763,-1.1022979244736955,-1.009582414428104,1799036000000,
-0.8230656263755718,-1.0913069854629813,-1.012333064466931,1799041000000,
0.632453746429042,-1.1571593345443998,-1.0148893421191263,1799046000000,
0.12754826753712287,-1.1036422338423275,-1.014766998794079,1799051000000,
-0.8878296859155054,-1.1462961095867366,-1.0169810818283178,1799056000000,
0.838455989797632,-1.189469150770767,-1.0185288317478183,1799061000000,
0.051161842490156755,-1.100482185086518,-1.017283165999831,1799066000000,
-0.8881342181697179,-1.1644625347306266,-1.0194070564126922,1799071000000,
0.6869576250033356,-1.1512336036324782,-1.0191237245284535,1799076000000,
-1.0933215109901941,-1.0841789475701749,-1.019341579160804,1799081000000,
0.6592214021709984,-1.1624234615476456,-1.0222568091347906,1799086000000,
0.22316225034245477,-1.0817008309035847,-1.0205072627187775,1799091000000,
-0.9193156208018521,-1.164416327510346,-1.0199724331393285,1799096000000,
0.7046673051612984,-1.1817731685177115,-1.0222798263438424,1799101000000,
0.19273178556792392,-1.0707940989641347,-1.020050085386725,1799106000000,
-0.9216847723279795,-1.1687618649338154,-1.0188051505573512,1799111000000,
0.535240475127474,-1.1030243938515687,-1.0206494094410359,1799116000000,
0.22001907528568165,-1.101454594232317,-1.0190930852755131,1799121000000,
-0.6121437857218494,-1.1584940103455479,-1.0173452731108568,1799126000000,
0.5684475937339579,-1.1405298998000124,-1.0154762527655437,1799131000000,
-0.05058620677617078,-1.1146651423448368,-1.0134654581857483,1799136000000,
0.06707817386456989,-1.1562826200699554,-1.0114023766378495,1799141000000,
0.09009610787814475,-1.110660713779124,-1.0092431706669243,1799146000000,
-0.21194999881640508,-1.020914937025888,-1.006746975693511,1799151000000,
0.11746998419274672,-1.234621601542345,-1.005602643735103,1799156000000,
0.19366548794714486,-1.081820392941122,-1.0039629861262216,1799161000000,
-0.20260079821019097,-1.0652223252549653,-1.0021197530687467,1799166000000,
0.0601086373492354,-1.1840890776017294,-1.0009642506049332,1799171000000,
0.16467270325354455,-1.1137897027764103,-0.9994521841775587,1799176000000,
-0.025377491406963177,-1.1493313687985587,-0.997545714714408,1799181000000,
-0.04619053996355043,-1.1269663935933345,-0.9970654398616228,1799186000000,
0.12853902014584795,-1.0230295594059298,-0.9958507353729159,1799191000000,
-0.05767215914858795,-1.1729050106948353,-0.9940892788166886,1799196000000,
-0.033324271980792616,-1.0613001483968227,-0.9929190721039471,1799201000000,
0.0738594700973445,-1.1190613216730982,-0.9924801704214253,1799206000000,
-0.07247031357847235,-1.1024447996883922,-0.9915827101959801,1799211000000,
-0.02918244958960505,-1.0780096204728336,-0.9905092240218194,1799216000000,
0.10186862594905445,-1.0674143107979277,-0.9902256942494692,1799221000000,
-0.06807875766613079,-1.132743449091651,-0.9894593121296592,1799226000000,
0.06033302189334622,-1.1052605003311948,-0.9886867789336681,1799231000000,
0.08897343211050891,-1.1152283520875292,-0.9886681120430886,1799236000000,
-0.07058451138016959,-1.0805969907998798,-0.9877270418087746,1799241000000,
-0.06237886591652981,-1.1317740278931623,-0.9873008029473129,1799246000000,
0.10816754535987012,-1.050127987815826,-0.9869710983311349,1799251000000,
-0.03739304215047473,-1.1337699849953957,-0.986597610521332,1799256000000,
-0.0578840353887153,-1.1047050316328868,-0.9863028598914944,1799261000000,
0.08116195252327317,-1.0560408683452347,-0.986112487560102,1799266000000,
-0.04922882334411517,-1.167659268486216,-0.9856540451979808,1799271000000,
-0.06928988383910797,-1.0903589480087306,-0.9848751056051952,1799276000000,
0.08674839098134995,-1.0785095512356784,-0.9856222948150499,1799281000000,
-0.09384806172991897,-1.1559583829976077,-0.9849546793072562,1799286000000,
0.06351184617890362,-1.0852744698425034,-0.9850648099255664,1799291000000,
0.0076873621348499815,-1.078297960298235,-0.9849702237244768,1799296000000,
-0.07150944507518854,-1.1792942158286008,-0.9847519055705984,1799301000000,
0.04080719938069888,-1.0747195623592507,-0.9843171436385943,1799306000000,
-0.012130968533132612,-1.0530069195013108,-0.9841864757787939,1799311000000,
-0.06846495308568802,-1.1942576908266427,-0.9836897783152949,1799316000000,
-0.06717193615810761,-1.1070007173663612,-0.983578382684589,1799321000000,
0.09614371221604945,-1.0253317600609295,-0.9837599875153022,1799326000000,
-0.006516252114074158,-1.2472561092562697,-0.983415931722058,1799331000000,
-0.0785940333358742,-1.0134593165311727,-0.9831050347205218,1799336000000,
0.07073891176210498,-1.0445973722390018,-0.9834776430642819,1799341000000,
0.006226840442439659,-1.2305149560774857,-0.9829124247780515,1799346000000,
-0.11746194242017319,-1.0350379418060254,-0.9825740632982576,1799351000000,
0.055344451619274634,-1.046772604618719,-0.9828552156177659,1799356000000,
-0.04559191706403406,-1.2249679314088273,-0.9830186200809896,1799361000000,
-0.019500487194662817,-1.0253925308289356,-0.9828069457752387,1799366000000,
-0.024707219183450993,-1.0646544542768113,-0.9833113669528665,1799371000000,
-0.01485823134328284,-1.1725209247923953,-0.9832111999120091,1799376000000,
0.06224483490371374,-1.0045304154904704,-0.9826181310073573,1799381000000,
-0.06596036810116723,-1.151356282699829,-0.9828585798066031,1799386000000,
-0.026300229231424128,-1.0464335314197781,-0.9826167575803871,1799391000000,
0.1025646344290832,-1.0326445052439166,-0.9825191921831656,1799396000000,
-0.05489283659355625,-1.119355158713767,-0.9825424540641078,1799401000000,
-0.41623831501926284,-1.0542482554992751,-0.9832204928305747,1799406000000,
0.4331166105045886,-1.2307852893217734,-0.9852748700774187,1799411000000,
0.009432247445131143,-1.077938333999583,-0.9855972737033439,1799416000000,
-0.7279829912534438,-1.0144645259205747,-0.987538977628262,1799421000000,
0.32227204405459986,-1.1830243554960373,-0.9912657744491119,1799426000000,
0.20052304334846502,-1.1314586152244768,-0.9930450895336139,1799431000000,
-0.9062370622644088,-1.1163212461442367,-0.9952485220914712,1799436000000,
0.07556158997583974,-1.1966677546398632,-0.9989477756469782,1799441000000,
0.7651279475972309,-1.1957814552301693,-1.000810862924407,1799446000000,
-0.6889709533878766,-0.9576410655655804,-1.0015980180882096,1799451000000,
-0.16225701070383297,-1.1352231594256073,-1.0044055591861116,1799456000000,
0.8372473806582618,-1.2658137851016684,-1.0069980541282355,1799461000000,
-0.11232689678938235,-0.9943463789513262,-1.005808850549692,1799466000000,
-0.815051675546882,-1.069783983970588,-1.008387907651184,1799471000000,
0.7828138434553437,-1.2120981415542547,-1.0108645386933421,1799476000000,
-0.00010185104971825037,-1.0577894861332195,-1.0094912651724035,1799481000000,
-0.8305471522254411,-1.131645818561865,-1.0118698499497893,1799486000000,
0.6600282974015907,-1.1240503758146727,-1.0123662951586156,1799491000000,
-0.5737530701590028,-1.178742054425789,-1.011947831001896,1799496000000,
-0.09580815822936016,-1.1839830781492513,-1.0139799104294627,1799501000000,
0.7037207483152956,-1.034909770762446,-1.0130684139752881,1799506000000,
-0.7971010529324462,-1.1843177462859997,-1.0124694626793704,1799511000000,
0.6883003618535762,-1.1904803229501715,-1.0143579022363542,1799516000000,
0.11754363223783226,-1.0544570553506003,-1.0130968227902815,1799521000000,
-0.6542873255322358,-1.0667540328036629,-1.0121654716067763,1799526000000,
0.680013506696649,-1.2160041767344034,-1.0117706297540443,1799531000000,
-0.017568682746658508,-1.0978377575324716,-1.0097465961585543,1799536000000,
-0.011356502972750648,-1.1537578932741275,-1.0075289208929301,1799541000000,
0.09375675622492109,-1.0460127432910427,-1.0061516809949635,1799546000000,
-0.17809140410561458,-1.1901367674089596,-1.0042080075841036,1799551000000,
0.011811853140820627,-1.1554199266511072,-1.0021752691891994,1799556000000,
0.10353664170249283,-1.0633356498232456,-1.0009124798082492,1799561000000,
-0.059339179683631726,-1.1929687266297666,-0.9996211883460757,1799566000000,
-0.04251588583278658,-1.121040845901997,-0.9977649795557144,1799571000000,
0.13936296422813693,-1.0857877739863246,-0.9971235480901856,1799576000000,
-0.05325919036895079,-1.1872751661700853,-0.9956673300077311,1799581000000,
-0.043152085524688306,-1.1016668968415184,-0.9941460001010332,1799586000000,
0.05650539371637238,-1.0753615686585258,-0.9931611432962926,1799591000000,
-0.07066681881853597,-1.1502603585869804,-0.9915201585776449,1799596000000,
-0.029119289353569517,-1.101361521642451,-0.9903841224725578,1799601000000,
0.13743638816466608,-1.0514836411881137,-0.9894401130581517,1799606000000,
0.08291127491572846,-1.228580604324377,-0.9885899398245352,1799611000000,
-0.14079101399138272,-1.0627274766946004,-0.9877201105301447,1799616000000,
0.09960610566356753,-1.0618890781432613,-0.9865985594405271,1799621000000,
-0.022164794796417957,-1.1499455732999813,-0.9863554850029409,1799626000000,
-0.021211522062701726,-1.1011328364526916,-0.9853569263315812,1799631000000,
0.041705898428885835,-1.0312859429761587,-0.9849566323247686,1799636000000,
0.028274779656309652,-1.1798284806022035,-0.9840917324764278,1799641000000,
-0.11457806222259051,-1.08722106642634,-0.9830856502357285,1799646000000,
0.07994366531999604,-1.0343970271987346,-0.9829298755825241,1799651000000,
0.06550329220473253,-1.1912603535201742,-0.9831728198489211,1799656000000,
-0.10207245806116984,-1.0652526327571554,-0.9823100612191897,1799661000000,
